#
# Results on Friday February 22 2019 18:09:01 UTC.
# USER AGENT: Mozilla/5.0 (Linux; Android 9; Mi A2 Build/PKQ1.180904.001; wv) AppleWebKit/537.36 (KHTML, like Gecko) Version/4.0 Chrome/72.0.3626.105 Mobile Safari/537.36 [FB_IAB/FB4A;FBAV/208.0.0.38.104;]
# Design number was non-random = 0
#
# Columns below this comment are as follows:
# 1. Time results were received.
# 2. MD5 hash of participant's IP address.
# 3. Controller name.
# 4. Item number.
# 5. Element number.
# 6. Type.
# 7. Group.
# 8. Field name.
# 9. Field value.
1550858942,845661b29bd302686e29263fa1cf016c,Form,0,0,intro,NULL,age,27
1550858942,845661b29bd302686e29263fa1cf016c,Form,0,0,intro,NULL,consent,yes
1550858942,845661b29bd302686e29263fa1cf016c,Form,0,0,intro,NULL,Spain,Si
1550858942,845661b29bd302686e29263fa1cf016c,Form,0,0,intro,NULL,Spanish,Si
1550858942,845661b29bd302686e29263fa1cf016c,Form,0,0,intro,NULL,sex,female
# The lines below this comment are in groups of 2.
# The formats of the lines in each of these groups are as follows:
#
# Line 1:
#     Col. 1: Time results were received.
#     Col. 2: MD5 hash of participant's IP address.
#     Col. 3: Controller name.
#     Col. 4: Item number.
#     Col. 5: Element number.
#     Col. 6: Type.
#     Col. 7: Group.
#     Col. 8: Sentence (or sentence MD5).
# Line 2:
#     Col. 1: Time results were received.
#     Col. 2: MD5 hash of participant's IP address.
#     Col. 3: Controller name.
#     Col. 4: Item number.
#     Col. 5: Element number.
#     Col. 6: Type.
#     Col. 7: Group.
#     Col. 8: Question (NULL if none).
#     Col. 9: Answer.
#     Col. 10: Whether or not answer was correct (NULL if N/A).
#     Col. 11: Time taken to answer.
1550858942,845661b29bd302686e29263fa1cf016c,AcceptabilityJudgment,5,0,practice,NULL,Susurró por qué lo había hecho.
1550858942,845661b29bd302686e29263fa1cf016c,AcceptabilityJudgment,5,0,practice,NULL,NULL,6,NULL,11506
1550858942,845661b29bd302686e29263fa1cf016c,AcceptabilityJudgment,2,0,practice,NULL,¿Qué poema conoces a la mujer que escribía?
1550858942,845661b29bd302686e29263fa1cf016c,AcceptabilityJudgment,2,0,practice,NULL,NULL,1,NULL,6167
1550858942,845661b29bd302686e29263fa1cf016c,AcceptabilityJudgment,4,0,practice,NULL,¿Qué coche que te has comprado?
1550858942,845661b29bd302686e29263fa1cf016c,AcceptabilityJudgment,4,0,practice,NULL,NULL,2,NULL,4563
1550858942,845661b29bd302686e29263fa1cf016c,AcceptabilityJudgment,6,0,practice,NULL,María no sabe qué libro leyó Juan.
1550858942,845661b29bd302686e29263fa1cf016c,AcceptabilityJudgment,6,0,practice,NULL,NULL,7,NULL,12248
1550858942,845661b29bd302686e29263fa1cf016c,AcceptabilityJudgment,1,0,practice,NULL,Pintó el artista retratos terribles.
1550858942,845661b29bd302686e29263fa1cf016c,AcceptabilityJudgment,1,0,practice,NULL,NULL,5,NULL,10050
1550858942,845661b29bd302686e29263fa1cf016c,AcceptabilityJudgment,3,0,practice,NULL,¿A quién le mandó qué libro?
1550858942,845661b29bd302686e29263fa1cf016c,AcceptabilityJudgment,3,0,practice,NULL,NULL,7,NULL,3829
1550858942,845661b29bd302686e29263fa1cf016c,AcceptabilityJudgment,117,0,filler_gram,NULL,A muchos de los nadadores no les hizo gracia que el ayuntamiento decidiera cerrar la piscina municipal.
1550858942,845661b29bd302686e29263fa1cf016c,AcceptabilityJudgment,117,0,filler_gram,NULL,NULL,7,NULL,7230
1550858942,845661b29bd302686e29263fa1cf016c,AcceptabilityJudgment,136,0,filler_ungram,NULL,¿María ha descubierto que los contratos que firmaron la constructora no cumplen con la nueva normativa europea?
1550858942,845661b29bd302686e29263fa1cf016c,AcceptabilityJudgment,136,0,filler_ungram,NULL,NULL,3,NULL,10637
1550858942,845661b29bd302686e29263fa1cf016c,AcceptabilityJudgment,82,0,wh_short,4,¿A qué actriz le han dedicado la canción que aparece en la película como muestra de admiración?
1550858942,845661b29bd302686e29263fa1cf016c,AcceptabilityJudgment,82,0,wh_short,4,NULL,5,NULL,9629
1550858942,845661b29bd302686e29263fa1cf016c,AcceptabilityJudgment,105,0,filler_gram,NULL,¿A quién crees que han pillado robando latas de cerveza en el centro comercial de la esquina?
1550858942,845661b29bd302686e29263fa1cf016c,AcceptabilityJudgment,105,0,filler_gram,NULL,NULL,7,NULL,4376
1550858942,845661b29bd302686e29263fa1cf016c,AcceptabilityJudgment,164,0,filler_ungram,NULL,Varios de los vecinos estaban viendo por la ventana y cuchicheaban mientras veían cómo ardía el contenedor.
1550858942,845661b29bd302686e29263fa1cf016c,AcceptabilityJudgment,164,0,filler_ungram,NULL,NULL,4,NULL,6719
1550858942,845661b29bd302686e29263fa1cf016c,AcceptabilityJudgment,156,0,filler_ungram,NULL,Al conserje lo han pillado robando en la oficina del director general cuando no habían nadie alrededor.
1550858942,845661b29bd302686e29263fa1cf016c,AcceptabilityJudgment,156,0,filler_ungram,NULL,NULL,3,NULL,10034
1550858942,845661b29bd302686e29263fa1cf016c,AcceptabilityJudgment,110,0,filler_gram,NULL,¿Los bebés tienen que dormir más de catorce horas al día o es solo una leyenda urbana?
1550858942,845661b29bd302686e29263fa1cf016c,AcceptabilityJudgment,110,0,filler_gram,NULL,NULL,7,NULL,7776
1550858942,845661b29bd302686e29263fa1cf016c,AcceptabilityJudgment,44,0,wh_long,14,¿A qué periodista que temen todos los políticos le han dado el programa por su gran profesionalidad?
1550858942,845661b29bd302686e29263fa1cf016c,AcceptabilityJudgment,44,0,wh_long,14,NULL,5,NULL,9085
1550858942,845661b29bd302686e29263fa1cf016c,AcceptabilityJudgment,140,0,filler_ungram,NULL,¿Es verdad que Yolanda le ha pedido al técnico una cita y ella le ha dado largas?
1550858942,845661b29bd302686e29263fa1cf016c,AcceptabilityJudgment,140,0,filler_ungram,NULL,NULL,4,NULL,21131
1550858942,845661b29bd302686e29263fa1cf016c,AcceptabilityJudgment,154,0,filler_ungram,NULL,A Vitoria turistas llegan que quieren ver la catedral pero normalmente se quedan a dormir en Bilbao.
1550858942,845661b29bd302686e29263fa1cf016c,AcceptabilityJudgment,154,0,filler_ungram,NULL,NULL,4,NULL,8618
1550858942,845661b29bd302686e29263fa1cf016c,AcceptabilityJudgment,73,0,local_short,19,A la candidata le han criticado el proyecto que proponen los principales sindicatos antes de poder presentarlo.
1550858942,845661b29bd302686e29263fa1cf016c,AcceptabilityJudgment,73,0,local_short,19,NULL,5,NULL,13298
1550858942,845661b29bd302686e29263fa1cf016c,AcceptabilityJudgment,155,0,filler_ungram,NULL,Al apagar la luz viera una sombra y me levanté de la cama para ver qué era.
1550858942,845661b29bd302686e29263fa1cf016c,AcceptabilityJudgment,155,0,filler_ungram,NULL,NULL,4,NULL,5440
1550858942,845661b29bd302686e29263fa1cf016c,AcceptabilityJudgment,169,0,filler_ungram,NULL,Mikel opina que a Laura debe de faltar todavía un poco para defender su tesis doctoral.
1550858942,845661b29bd302686e29263fa1cf016c,AcceptabilityJudgment,169,0,filler_ungram,NULL,NULL,2,NULL,7325
1550858942,845661b29bd302686e29263fa1cf016c,AcceptabilityJudgment,121,0,filler_gram,NULL,Harry le ha dicho a Ron que después de la comida quiere ir a tomar un helado.
1550858942,845661b29bd302686e29263fa1cf016c,AcceptabilityJudgment,121,0,filler_gram,NULL,NULL,7,NULL,7167
1550858942,845661b29bd302686e29263fa1cf016c,AcceptabilityJudgment,48,0,wh_long,18,¿A qué administrativa que investga la policía anticorrupción le han dado el contrato para que lo oculte?
1550858942,845661b29bd302686e29263fa1cf016c,AcceptabilityJudgment,48,0,wh_long,18,NULL,6,NULL,5474
1550858942,845661b29bd302686e29263fa1cf016c,AcceptabilityJudgment,128,0,filler_ungram,NULL,¿A veces piensas que las estrellas que brilla mucho en el cielo por la noche son ovnis?
1550858942,845661b29bd302686e29263fa1cf016c,AcceptabilityJudgment,128,0,filler_ungram,NULL,NULL,3,NULL,5682
1550858942,845661b29bd302686e29263fa1cf016c,AcceptabilityJudgment,139,0,filler_ungram,NULL,¿Por qué a los italianos da tanto asco que se le ponga piña a la pizza?
1550858942,845661b29bd302686e29263fa1cf016c,AcceptabilityJudgment,139,0,filler_ungram,NULL,NULL,2,NULL,4913
1550858942,845661b29bd302686e29263fa1cf016c,AcceptabilityJudgment,104,0,filler_gram,NULL,¿A qué ha venido el cliente que se ha ido montando un espectáculo e insultando al encargado?
1550858942,845661b29bd302686e29263fa1cf016c,AcceptabilityJudgment,104,0,filler_gram,NULL,NULL,7,NULL,8739
1550858942,845661b29bd302686e29263fa1cf016c,AcceptabilityJudgment,150,0,filler_ungram,NULL,¿Es cierto que los manifestantes ha cortado el acceso al palacio de la Moncloa con neumáticos ardiendo?
1550858942,845661b29bd302686e29263fa1cf016c,AcceptabilityJudgment,150,0,filler_ungram,NULL,NULL,3,NULL,2892
1550858942,845661b29bd302686e29263fa1cf016c,AcceptabilityJudgment,77,0,local_short,23,A la profesora le han lavado la chaqueta que ensuciaron bastante los niños en la tintorería nueva.
1550858942,845661b29bd302686e29263fa1cf016c,AcceptabilityJudgment,77,0,local_short,23,NULL,4,NULL,8570
1550858942,845661b29bd302686e29263fa1cf016c,AcceptabilityJudgment,124,0,filler_gram,NULL,Los cuadros estaban iluminados por dos lámparas enormes pero aún así no se podían apreciar los detalles.
1550858942,845661b29bd302686e29263fa1cf016c,AcceptabilityJudgment,124,0,filler_gram,NULL,NULL,5,NULL,15524
1550858942,845661b29bd302686e29263fa1cf016c,AcceptabilityJudgment,143,0,filler_ungram,NULL,¿Hay algo que deban saber los miembros del comité de selección antes de coger una decisión definitiva?
1550858942,845661b29bd302686e29263fa1cf016c,AcceptabilityJudgment,143,0,filler_ungram,NULL,NULL,3,NULL,6006
1550858942,845661b29bd302686e29263fa1cf016c,AcceptabilityJudgment,112,0,filler_gram,NULL,¿Qué tipo de ropa le gusta ponerse a Julen para pasarse el domingo tirado en el sofá?
1550858942,845661b29bd302686e29263fa1cf016c,AcceptabilityJudgment,112,0,filler_gram,NULL,NULL,7,NULL,7809
1550858942,845661b29bd302686e29263fa1cf016c,AcceptabilityJudgment,11,0,local_long,5,A la investigadora que premió la Universidad Complutense le han publicado el estudio en una revista importante.
1550858942,845661b29bd302686e29263fa1cf016c,AcceptabilityJudgment,11,0,local_long,5,NULL,4,NULL,7568
1550858942,845661b29bd302686e29263fa1cf016c,AcceptabilityJudgment,138,0,filler_ungram,NULL,¿Dónde ha puesto al banquero el sobre que le entregó el político ayer cuando visitó la sucursal?
1550858942,845661b29bd302686e29263fa1cf016c,AcceptabilityJudgment,138,0,filler_ungram,NULL,NULL,5,NULL,8942
1550858942,845661b29bd302686e29263fa1cf016c,AcceptabilityJudgment,115,0,filler_gram,NULL,Al coche de mi hermano le toca pasar la revisión en el taller que recomienda el fabricante.
1550858942,845661b29bd302686e29263fa1cf016c,AcceptabilityJudgment,115,0,filler_gram,NULL,NULL,7,NULL,8530
1550858942,845661b29bd302686e29263fa1cf016c,AcceptabilityJudgment,158,0,filler_ungram,NULL,A menudo perdemos la noción del tiempo cuando estáis haciendo algo divertido con nuestra pareja o amigos.
1550858942,845661b29bd302686e29263fa1cf016c,AcceptabilityJudgment,158,0,filler_ungram,NULL,NULL,2,NULL,7938
1550858942,845661b29bd302686e29263fa1cf016c,AcceptabilityJudgment,19,0,local_long,13,A la famosa que admiran todos los adolescentes le han cancelado la serie por no tener audiencia.
1550858942,845661b29bd302686e29263fa1cf016c,AcceptabilityJudgment,19,0,local_long,13,NULL,5,NULL,10743
1550858942,845661b29bd302686e29263fa1cf016c,AcceptabilityJudgment,171,0,filler_ungram,NULL,Los expertos dicen que los productos de Mercadona fuesen de una calidad similar a los de marca.
1550858942,845661b29bd302686e29263fa1cf016c,AcceptabilityJudgment,171,0,filler_ungram,NULL,NULL,1,NULL,5268
1550858942,845661b29bd302686e29263fa1cf016c,AcceptabilityJudgment,168,0,filler_ungram,NULL,Idoia ha tenido un bebé y ahora no tiene tiempo para morder con sus compañeros de trabajo.
1550858942,845661b29bd302686e29263fa1cf016c,AcceptabilityJudgment,168,0,filler_ungram,NULL,NULL,2,NULL,7291
1550858942,845661b29bd302686e29263fa1cf016c,AcceptabilityJudgment,153,0,filler_ungram,NULL,Al hospital faltan recursos y por eso los pacientes que llegan a urgenicas tienen que esperar.
1550858942,845661b29bd302686e29263fa1cf016c,AcceptabilityJudgment,153,0,filler_ungram,NULL,NULL,2,NULL,5728
1550858942,845661b29bd302686e29263fa1cf016c,AcceptabilityJudgment,7,0,local_long,1,A la abogada que buscaba el secretario judicial le han entregado la documentación para que la archive.
1550858942,845661b29bd302686e29263fa1cf016c,AcceptabilityJudgment,7,0,local_long,1,NULL,4,NULL,12099
1550858942,845661b29bd302686e29263fa1cf016c,AcceptabilityJudgment,111,0,filler_gram,NULL,¿Quién crees que ha podido llevarse las llaves de la puerta principal del almacén sin darse cuenta?
1550858942,845661b29bd302686e29263fa1cf016c,AcceptabilityJudgment,111,0,filler_gram,NULL,NULL,7,NULL,5835
1550858942,845661b29bd302686e29263fa1cf016c,AcceptabilityJudgment,165,0,filler_ungram,NULL,El hermano de Diego sospecha que el regalo no es para ella misma porque no es su cumpleaños.
1550858942,845661b29bd302686e29263fa1cf016c,AcceptabilityJudgment,165,0,filler_ungram,NULL,NULL,2,NULL,7053
1550858942,845661b29bd302686e29263fa1cf016c,AcceptabilityJudgment,148,0,filler_ungram,NULL,¿Por qué Alain insiste en seguir querido ser DJ cuando todos opinan que se le da fatal?
1550858942,845661b29bd302686e29263fa1cf016c,AcceptabilityJudgment,148,0,filler_ungram,NULL,NULL,1,NULL,5689
1550858942,845661b29bd302686e29263fa1cf016c,AcceptabilityJudgment,40,0,wh_long,10,¿A qué escritora que elogian los críticos literarios le han censurado la novela porque habla de corrupción?
1550858942,845661b29bd302686e29263fa1cf016c,AcceptabilityJudgment,40,0,wh_long,10,NULL,4,NULL,8523
1550858942,845661b29bd302686e29263fa1cf016c,AcceptabilityJudgment,126,0,filler_gram,NULL,El acusado se negó a responder ninguna pregunta y el juez pidió que se sentara de nuevo.
1550858942,845661b29bd302686e29263fa1cf016c,AcceptabilityJudgment,126,0,filler_gram,NULL,NULL,5,NULL,10728
1550858942,845661b29bd302686e29263fa1cf016c,AcceptabilityJudgment,146,0,filler_ungram,NULL,¿Cuál de los socios del gimnasio ha oído cómo el monitor insultaba los alumnos en clase?
1550858942,845661b29bd302686e29263fa1cf016c,AcceptabilityJudgment,146,0,filler_ungram,NULL,NULL,3,NULL,5885
1550858942,845661b29bd302686e29263fa1cf016c,AcceptabilityJudgment,98,0,wh_short,20,¿A qué dependienta le han ofrecido el puesto que quieren todos los trabajdores después de tres años?
1550858942,845661b29bd302686e29263fa1cf016c,AcceptabilityJudgment,98,0,wh_short,20,NULL,4,NULL,12389
1550858942,845661b29bd302686e29263fa1cf016c,AcceptabilityJudgment,147,0,filler_ungram,NULL,¿Adónde Josu suele ir cuando se va en coche los fines de semana sin avisar a nadie?
1550858942,845661b29bd302686e29263fa1cf016c,AcceptabilityJudgment,147,0,filler_ungram,NULL,NULL,6,NULL,8064
1550858942,845661b29bd302686e29263fa1cf016c,AcceptabilityJudgment,106,0,filler_gram,NULL,¿A qué protectora de animales ha ido David para adoptar un perro para que le haga compañía?
1550858942,845661b29bd302686e29263fa1cf016c,AcceptabilityJudgment,106,0,filler_gram,NULL,NULL,6,NULL,5697
1550858942,845661b29bd302686e29263fa1cf016c,AcceptabilityJudgment,134,0,filler_ungram,NULL,¿A Kepa le parece bien que vayamos a cenar con él mismo o prefiere quedarse solo en casa?
1550858942,845661b29bd302686e29263fa1cf016c,AcceptabilityJudgment,134,0,filler_ungram,NULL,NULL,2,NULL,4493
1550858942,845661b29bd302686e29263fa1cf016c,AcceptabilityJudgment,36,0,wh_long,6,¿A qué ejecutiva que apoya la junta directiva le han rechazado la propuesta en la última votación?
1550858942,845661b29bd302686e29263fa1cf016c,AcceptabilityJudgment,36,0,wh_long,6,NULL,5,NULL,6305
1550858942,845661b29bd302686e29263fa1cf016c,AcceptabilityJudgment,122,0,filler_gram,NULL,No era la primera vez que estallaba una discusión durante el desayuno por culpa de la guerra.
1550858942,845661b29bd302686e29263fa1cf016c,AcceptabilityJudgment,122,0,filler_gram,NULL,NULL,7,NULL,6607
1550858942,845661b29bd302686e29263fa1cf016c,AcceptabilityJudgment,108,0,filler_gram,NULL,¿Por qué bastantes adolescentes creen que todas las decisiones que toman sus padres son para hacerles rabiar?
1550858942,845661b29bd302686e29263fa1cf016c,AcceptabilityJudgment,108,0,filler_gram,NULL,NULL,5,NULL,8074
1550858942,845661b29bd302686e29263fa1cf016c,AcceptabilityJudgment,109,0,filler_gram,NULL,¿Juan piensa que estamos enfadados porque no ha venido a cenar o porque ya no le llamamos?
1550858942,845661b29bd302686e29263fa1cf016c,AcceptabilityJudgment,109,0,filler_gram,NULL,NULL,5,NULL,9923
1550858942,845661b29bd302686e29263fa1cf016c,AcceptabilityJudgment,102,0,wh_short,24,¿A qué arquitecta le han parado la obra que contrató la promotora inmobiliaria por no tener permiso?
1550858942,845661b29bd302686e29263fa1cf016c,AcceptabilityJudgment,102,0,wh_short,24,NULL,4,NULL,5411
1550858942,845661b29bd302686e29263fa1cf016c,AcceptabilityJudgment,172,0,filler_ungram,NULL,Ibon ha comprado velas aromáticos para ponerlas alrededor de la bañera y darle una sorpresa a Leire.
1550858942,845661b29bd302686e29263fa1cf016c,AcceptabilityJudgment,172,0,filler_ungram,NULL,NULL,2,NULL,5749
1550858942,845661b29bd302686e29263fa1cf016c,AcceptabilityJudgment,130,0,filler_ungram,NULL,¿A los pueblos del sur de España hace falta agua procedente de los embalses del norte?
1550858942,845661b29bd302686e29263fa1cf016c,AcceptabilityJudgment,130,0,filler_ungram,NULL,NULL,2,NULL,5302
1550858942,845661b29bd302686e29263fa1cf016c,AcceptabilityJudgment,152,0,filler_ungram,NULL,Al cocinero han despedido porque los clientes que vinieron ayer han puesto una reclamación contra él.
1550858942,845661b29bd302686e29263fa1cf016c,AcceptabilityJudgment,152,0,filler_ungram,NULL,NULL,2,NULL,5683
1550858942,845661b29bd302686e29263fa1cf016c,AcceptabilityJudgment,23,0,local_long,17,A la cocinera que elogian los críticos culinarios le han copiado el postre sin que diera permiso.
1550858942,845661b29bd302686e29263fa1cf016c,AcceptabilityJudgment,23,0,local_long,17,NULL,4,NULL,8752
1550858942,845661b29bd302686e29263fa1cf016c,AcceptabilityJudgment,162,0,filler_ungram,NULL,Parece que la presidenta quieren que los trabajadores que han hecho huelga sea penalizados de alguna manera.
1550858942,845661b29bd302686e29263fa1cf016c,AcceptabilityJudgment,162,0,filler_ungram,NULL,NULL,1,NULL,3375
1550858942,845661b29bd302686e29263fa1cf016c,AcceptabilityJudgment,166,0,filler_ungram,NULL,La gata de la vecina de debajo tiene la costumbre de esconderse detrás del sofá del portal.
1550858942,845661b29bd302686e29263fa1cf016c,AcceptabilityJudgment,166,0,filler_ungram,NULL,NULL,3,NULL,6183
1550858942,845661b29bd302686e29263fa1cf016c,AcceptabilityJudgment,145,0,filler_ungram,NULL,¿Qué coche Asier ha visto merodeando por la zona a la misma hora que explotó la bomba?
1550858942,845661b29bd302686e29263fa1cf016c,AcceptabilityJudgment,145,0,filler_ungram,NULL,NULL,3,NULL,4468
1550858942,845661b29bd302686e29263fa1cf016c,AcceptabilityJudgment,65,0,local_short,11,A la pasajera le han perdido la maleta que retuvo el guarda jurado al llegar al aeropuerto.
1550858942,845661b29bd302686e29263fa1cf016c,AcceptabilityJudgment,65,0,local_short,11,NULL,3,NULL,6321
1550858942,845661b29bd302686e29263fa1cf016c,AcceptabilityJudgment,173,0,filler_ungram,NULL,Mucha gente opta por regalar ramos de flores como detalle cuando él mismo se va de una empresa.
1550858942,845661b29bd302686e29263fa1cf016c,AcceptabilityJudgment,173,0,filler_ungram,NULL,NULL,3,NULL,6262
1550858942,845661b29bd302686e29263fa1cf016c,AcceptabilityJudgment,107,0,filler_gram,NULL,¿Para quién has comprado las galletas que están encima de la mesa del comedor en una caja?
1550858942,845661b29bd302686e29263fa1cf016c,AcceptabilityJudgment,107,0,filler_gram,NULL,NULL,6,NULL,7860
1550858942,845661b29bd302686e29263fa1cf016c,AcceptabilityJudgment,149,0,filler_ungram,NULL,¿Por dónde tienen que ir Andrea si quiere llegar a la plaza de la catedral cuanto antes?
1550858942,845661b29bd302686e29263fa1cf016c,AcceptabilityJudgment,149,0,filler_ungram,NULL,NULL,1,NULL,4571
1550858942,845661b29bd302686e29263fa1cf016c,AcceptabilityJudgment,57,0,local_short,3,A la diseñadora le han roto el bolso que adoran todas las marcas al coser la cremallera.
1550858942,845661b29bd302686e29263fa1cf016c,AcceptabilityJudgment,57,0,local_short,3,NULL,3,NULL,3950
1550858942,845661b29bd302686e29263fa1cf016c,AcceptabilityJudgment,174,0,filler_ungram,NULL,Tanto los ancianos como los niños pequeños estoy dentro de la población de riesgo cuando hace calor.
1550858942,845661b29bd302686e29263fa1cf016c,AcceptabilityJudgment,174,0,filler_ungram,NULL,NULL,1,NULL,5327
1550858942,845661b29bd302686e29263fa1cf016c,AcceptabilityJudgment,116,0,filler_gram,NULL,Al pasar por la casa que queríamos comprar vimos en un cartel que ya se había vendido.
1550858942,845661b29bd302686e29263fa1cf016c,AcceptabilityJudgment,116,0,filler_gram,NULL,NULL,7,NULL,7306
1550858942,845661b29bd302686e29263fa1cf016c,AcceptabilityJudgment,170,0,filler_ungram,NULL,Skype es un programa de gran utlidad para poder comunicarnos cuando no pudimos tener reuniones en persona.
1550858942,845661b29bd302686e29263fa1cf016c,AcceptabilityJudgment,170,0,filler_ungram,NULL,NULL,2,NULL,6049
1550858942,845661b29bd302686e29263fa1cf016c,AcceptabilityJudgment,32,0,wh_long,2,¿A qué chica que registró la policía secreta le han confiscado la mochila porque puede ser peligrosa?
1550858942,845661b29bd302686e29263fa1cf016c,AcceptabilityJudgment,32,0,wh_long,2,NULL,6,NULL,7145
1550858942,845661b29bd302686e29263fa1cf016c,AcceptabilityJudgment,161,0,filler_ungram,NULL,La alcaldesa ha decretado que todos los bares que no tenga licencia tienen que cerrar de noche.
1550858942,845661b29bd302686e29263fa1cf016c,AcceptabilityJudgment,161,0,filler_ungram,NULL,NULL,1,NULL,4478
1550858942,845661b29bd302686e29263fa1cf016c,AcceptabilityJudgment,142,0,filler_ungram,NULL,¿María le ha preguntado a su madre dónde había ido a recoger la blusa a la lavandería?
1550858942,845661b29bd302686e29263fa1cf016c,AcceptabilityJudgment,142,0,filler_ungram,NULL,NULL,1,NULL,6144
1550858942,845661b29bd302686e29263fa1cf016c,AcceptabilityJudgment,144,0,filler_ungram,NULL,¿El jefe sería capaz con dejar a su familia y fugarse con el dinero de la empresa?
1550858942,845661b29bd302686e29263fa1cf016c,AcceptabilityJudgment,144,0,filler_ungram,NULL,NULL,2,NULL,4142
1550858942,845661b29bd302686e29263fa1cf016c,AcceptabilityJudgment,52,0,wh_long,22,¿A qué enfermera que recomendó el equipo médico le han enseñado el calzado para tratar dolores musculares?
1550858942,845661b29bd302686e29263fa1cf016c,AcceptabilityJudgment,52,0,wh_long,22,NULL,3,NULL,4467
1550858942,845661b29bd302686e29263fa1cf016c,AcceptabilityJudgment,133,0,filler_ungram,NULL,¿A cuántos de los asistentes ha parecido interesante incluir una mesa redonda sobre el maltrato infantil?
1550858942,845661b29bd302686e29263fa1cf016c,AcceptabilityJudgment,133,0,filler_ungram,NULL,NULL,4,NULL,9507
1550858942,845661b29bd302686e29263fa1cf016c,AcceptabilityJudgment,167,0,filler_ungram,NULL,Luis no sabe si prefierese los yogures de limón o las natillas de vainilla con galleta María.
1550858942,845661b29bd302686e29263fa1cf016c,AcceptabilityJudgment,167,0,filler_ungram,NULL,NULL,1,NULL,4433
1550858942,845661b29bd302686e29263fa1cf016c,AcceptabilityJudgment,151,0,filler_ungram,NULL,A veces los estudiantes que menos estudian son lo que dan más trabajo en la evaluación final.
1550858942,845661b29bd302686e29263fa1cf016c,AcceptabilityJudgment,151,0,filler_ungram,NULL,NULL,3,NULL,9315
1550858942,845661b29bd302686e29263fa1cf016c,AcceptabilityJudgment,94,0,wh_short,16,¿A qué modelo le han pospuesto el evento que querían muchas agencias internacionales por el mal tiempo?
1550858942,845661b29bd302686e29263fa1cf016c,AcceptabilityJudgment,94,0,wh_short,16,NULL,4,NULL,7256
1550858942,845661b29bd302686e29263fa1cf016c,AcceptabilityJudgment,118,0,filler_gram,NULL,A la policía le parece raro que el ministro no quiera presentar su declaración de la renta.
1550858942,845661b29bd302686e29263fa1cf016c,AcceptabilityJudgment,118,0,filler_gram,NULL,NULL,7,NULL,6343
1550858942,845661b29bd302686e29263fa1cf016c,AcceptabilityJudgment,157,0,filler_ungram,NULL,A Pablo no parece normal que haya que pedir el voto por correo dos meses antes.
1550858942,845661b29bd302686e29263fa1cf016c,AcceptabilityJudgment,157,0,filler_ungram,NULL,NULL,1,NULL,4156
1550858942,845661b29bd302686e29263fa1cf016c,AcceptabilityJudgment,103,0,filler_gram,NULL,¿A cuál de los camareros que trabajan en la cervecería han visto borracho por la calle Dato?
1550858942,845661b29bd302686e29263fa1cf016c,AcceptabilityJudgment,103,0,filler_gram,NULL,NULL,5,NULL,7040
1550858942,845661b29bd302686e29263fa1cf016c,AcceptabilityJudgment,27,0,local_long,21,A la empresaria que boicotearon las grandes empresas le han enseñado el plan para que lo evalúe.
1550858942,845661b29bd302686e29263fa1cf016c,AcceptabilityJudgment,27,0,local_long,21,NULL,4,NULL,5705
1550858942,845661b29bd302686e29263fa1cf016c,AcceptabilityJudgment,160,0,filler_ungram,NULL,Jon sabe que las galletas que compra en el supermercado no son las más apropiados para él.
1550858942,845661b29bd302686e29263fa1cf016c,AcceptabilityJudgment,160,0,filler_ungram,NULL,NULL,1,NULL,7753
1550858942,845661b29bd302686e29263fa1cf016c,AcceptabilityJudgment,141,0,filler_ungram,NULL,¿Cómo sabe Edurne que todos los pedidos que se ha hecho hoy se tienen que entregar mañana?
1550858942,845661b29bd302686e29263fa1cf016c,AcceptabilityJudgment,141,0,filler_ungram,NULL,NULL,1,NULL,4564
1550858942,845661b29bd302686e29263fa1cf016c,AcceptabilityJudgment,123,0,filler_gram,NULL,Lorena y Jone se hicieron muy amigas durante el Erasmus y ahora se ven todos los años.
1550858942,845661b29bd302686e29263fa1cf016c,AcceptabilityJudgment,123,0,filler_gram,NULL,NULL,7,NULL,11045
1550858942,845661b29bd302686e29263fa1cf016c,AcceptabilityJudgment,135,0,filler_ungram,NULL,¿Qué crees que ha dicho el alcalde con el casino que han construido junto a la playa?
1550858942,845661b29bd302686e29263fa1cf016c,AcceptabilityJudgment,135,0,filler_ungram,NULL,NULL,3,NULL,5112
1550858942,845661b29bd302686e29263fa1cf016c,AcceptabilityJudgment,69,0,local_short,15,A la señora le han embargado el piso que visitaron los trabajadores sociales porque no tiene recursos.
1550858942,845661b29bd302686e29263fa1cf016c,AcceptabilityJudgment,69,0,local_short,15,NULL,1,NULL,6322
1550858942,845661b29bd302686e29263fa1cf016c,AcceptabilityJudgment,119,0,filler_gram,NULL,Miren quiere que los candidatos que estén interesados en el puesto manden su currículum por correo electrónico.
1550858942,845661b29bd302686e29263fa1cf016c,AcceptabilityJudgment,119,0,filler_gram,NULL,NULL,7,NULL,12441
1550858942,845661b29bd302686e29263fa1cf016c,AcceptabilityJudgment,132,0,filler_ungram,NULL,¿A qué edad empieza a consumir bebidas alcohólicas los jóvenes en ciudades grandes como Madrid o Barcelona?
1550858942,845661b29bd302686e29263fa1cf016c,AcceptabilityJudgment,132,0,filler_ungram,NULL,NULL,7,NULL,1961
1550858942,845661b29bd302686e29263fa1cf016c,AcceptabilityJudgment,114,0,filler_gram,NULL,¿Es posible que los cientifícos se hayan equivocado y que la tierra no gire alrededor del Sol?
1550858942,845661b29bd302686e29263fa1cf016c,AcceptabilityJudgment,114,0,filler_gram,NULL,NULL,7,NULL,7438
1550858942,845661b29bd302686e29263fa1cf016c,AcceptabilityJudgment,86,0,wh_short,8,¿A qué concursante le han hecho la pregunta que eligieron todos los espectadores para llevarse el bote?
1550858942,845661b29bd302686e29263fa1cf016c,AcceptabilityJudgment,86,0,wh_short,8,NULL,4,NULL,7048
1550858942,845661b29bd302686e29263fa1cf016c,AcceptabilityJudgment,163,0,filler_ungram,NULL,Para las deshauciados el tener que volver a casa de sus padres es un proceso muy traumático.
1550858942,845661b29bd302686e29263fa1cf016c,AcceptabilityJudgment,163,0,filler_ungram,NULL,NULL,1,NULL,6669
1550858942,845661b29bd302686e29263fa1cf016c,AcceptabilityJudgment,127,0,filler_ungram,NULL,¿Al niño han castigado por decir palabrotas o por romper los juguetes que eran del profesor?
1550858942,845661b29bd302686e29263fa1cf016c,AcceptabilityJudgment,127,0,filler_ungram,NULL,NULL,1,NULL,3933
1550858942,845661b29bd302686e29263fa1cf016c,AcceptabilityJudgment,131,0,filler_ungram,NULL,¿A cuánto está las patatas de guisar y los pimientos de Guernica en el mercado de Bilbao?
1550858942,845661b29bd302686e29263fa1cf016c,AcceptabilityJudgment,131,0,filler_ungram,NULL,NULL,1,NULL,4641
1550858942,845661b29bd302686e29263fa1cf016c,AcceptabilityJudgment,90,0,wh_short,12,¿A qué fugitiva le han quitado el botín que buscaba la Guardia Civil cuando cruzaba la frontera?
1550858942,845661b29bd302686e29263fa1cf016c,AcceptabilityJudgment,90,0,wh_short,12,NULL,4,NULL,4332
1550858942,845661b29bd302686e29263fa1cf016c,AcceptabilityJudgment,137,0,filler_ungram,NULL,¿Quién le ha dado permiso al portero que debería estar en la puerta por tomarse un descanso?
1550858942,845661b29bd302686e29263fa1cf016c,AcceptabilityJudgment,137,0,filler_ungram,NULL,NULL,4,NULL,4998
1550858942,845661b29bd302686e29263fa1cf016c,AcceptabilityJudgment,159,0,filler_ungram,NULL,Todos los bailarines que fueron seleccionadas para el programa tienen muchos años de experiencia a sus espaldas.
1550858942,845661b29bd302686e29263fa1cf016c,AcceptabilityJudgment,159,0,filler_ungram,NULL,NULL,1,NULL,4681
1550858942,845661b29bd302686e29263fa1cf016c,AcceptabilityJudgment,125,0,filler_gram,NULL,Itziar se ha hecho daño en la mano al intentar matar una mosca e irá al médico.
1550858942,845661b29bd302686e29263fa1cf016c,AcceptabilityJudgment,125,0,filler_gram,NULL,NULL,7,NULL,9665
1550858942,845661b29bd302686e29263fa1cf016c,AcceptabilityJudgment,15,0,local_long,9,A la ministra que criticó duramente la oposición le han publicado el libro después de mucha polémica.
1550858942,845661b29bd302686e29263fa1cf016c,AcceptabilityJudgment,15,0,local_long,9,NULL,3,NULL,8286
1550858942,845661b29bd302686e29263fa1cf016c,AcceptabilityJudgment,113,0,filler_gram,NULL,¿Le puede decir al Consejero de Educación que le volveré a llamar posiblemente la semana que viene?
1550858942,845661b29bd302686e29263fa1cf016c,AcceptabilityJudgment,113,0,filler_gram,NULL,NULL,7,NULL,6757
1550858942,845661b29bd302686e29263fa1cf016c,AcceptabilityJudgment,129,0,filler_ungram,NULL,¿A Juan le han dicho que tiene que trabajar el lunes por recuperar horas o puede descansar?
1550858942,845661b29bd302686e29263fa1cf016c,AcceptabilityJudgment,129,0,filler_ungram,NULL,NULL,4,NULL,6398
1550858942,845661b29bd302686e29263fa1cf016c,AcceptabilityJudgment,120,0,filler_gram,NULL,El frutero que vende papayas en la plaza de abastos nació en Cuba pero lleva aquí años.
1550858942,845661b29bd302686e29263fa1cf016c,AcceptabilityJudgment,120,0,filler_gram,NULL,NULL,6,NULL,8418
1550858942,845661b29bd302686e29263fa1cf016c,AcceptabilityJudgment,61,0,local_short,7,A la cantante le han boicoteado el disco que critican las asociaciones feministas por sus letras machistas.
1550858942,845661b29bd302686e29263fa1cf016c,AcceptabilityJudgment,61,0,local_short,7,NULL,6,NULL,5481
#
# Results on Friday February 22 2019 18:14:47 UTC.
# USER AGENT: Mozilla/5.0 (Linux; Android 8.1.0; Redmi Note 6 Pro Build/OPM1.171019.011; wv) AppleWebKit/537.36 (KHTML, like Gecko) Version/4.0 Chrome/72.0.3626.105 Mobile Safari/537.36 [FB_IAB/FB4A;FBAV/209.0.0.39.91;]
# Design number was non-random = 0
#
# Columns below this comment are as follows:
# 1. Time results were received.
# 2. MD5 hash of participant's IP address.
# 3. Controller name.
# 4. Item number.
# 5. Element number.
# 6. Type.
# 7. Group.
# 8. Field name.
# 9. Field value.
1550859288,96038ec5dc50aab6c7a514143ac41ab8,Form,0,0,intro,NULL,age,53
1550859288,96038ec5dc50aab6c7a514143ac41ab8,Form,0,0,intro,NULL,consent,yes
1550859288,96038ec5dc50aab6c7a514143ac41ab8,Form,0,0,intro,NULL,Spain,Si
1550859288,96038ec5dc50aab6c7a514143ac41ab8,Form,0,0,intro,NULL,Spanish,Si
1550859288,96038ec5dc50aab6c7a514143ac41ab8,Form,0,0,intro,NULL,sex,female
# The lines below this comment are in groups of 2.
# The formats of the lines in each of these groups are as follows:
#
# Line 1:
#     Col. 1: Time results were received.
#     Col. 2: MD5 hash of participant's IP address.
#     Col. 3: Controller name.
#     Col. 4: Item number.
#     Col. 5: Element number.
#     Col. 6: Type.
#     Col. 7: Group.
#     Col. 8: Sentence (or sentence MD5).
# Line 2:
#     Col. 1: Time results were received.
#     Col. 2: MD5 hash of participant's IP address.
#     Col. 3: Controller name.
#     Col. 4: Item number.
#     Col. 5: Element number.
#     Col. 6: Type.
#     Col. 7: Group.
#     Col. 8: Question (NULL if none).
#     Col. 9: Answer.
#     Col. 10: Whether or not answer was correct (NULL if N/A).
#     Col. 11: Time taken to answer.
1550859288,96038ec5dc50aab6c7a514143ac41ab8,AcceptabilityJudgment,3,0,practice,NULL,¿A quién le mandó qué libro?
1550859288,96038ec5dc50aab6c7a514143ac41ab8,AcceptabilityJudgment,3,0,practice,NULL,NULL,5,NULL,15413
1550859288,96038ec5dc50aab6c7a514143ac41ab8,AcceptabilityJudgment,4,0,practice,NULL,¿Qué coche que te has comprado?
1550859288,96038ec5dc50aab6c7a514143ac41ab8,AcceptabilityJudgment,4,0,practice,NULL,NULL,7,NULL,2566
1550859288,96038ec5dc50aab6c7a514143ac41ab8,AcceptabilityJudgment,1,0,practice,NULL,Pintó el artista retratos terribles.
1550859288,96038ec5dc50aab6c7a514143ac41ab8,AcceptabilityJudgment,1,0,practice,NULL,NULL,4,NULL,4068
1550859288,96038ec5dc50aab6c7a514143ac41ab8,AcceptabilityJudgment,5,0,practice,NULL,Susurró por qué lo había hecho.
1550859288,96038ec5dc50aab6c7a514143ac41ab8,AcceptabilityJudgment,5,0,practice,NULL,NULL,4,NULL,5951
1550859288,96038ec5dc50aab6c7a514143ac41ab8,AcceptabilityJudgment,2,0,practice,NULL,¿Qué poema conoces a la mujer que escribía?
1550859288,96038ec5dc50aab6c7a514143ac41ab8,AcceptabilityJudgment,2,0,practice,NULL,NULL,1,NULL,4442
1550859288,96038ec5dc50aab6c7a514143ac41ab8,AcceptabilityJudgment,6,0,practice,NULL,María no sabe qué libro leyó Juan.
1550859288,96038ec5dc50aab6c7a514143ac41ab8,AcceptabilityJudgment,6,0,practice,NULL,NULL,7,NULL,4854
1550859288,96038ec5dc50aab6c7a514143ac41ab8,AcceptabilityJudgment,145,0,filler_ungram,NULL,¿Qué coche Asier ha visto merodeando por la zona a la misma hora que explotó la bomba?
1550859288,96038ec5dc50aab6c7a514143ac41ab8,AcceptabilityJudgment,145,0,filler_ungram,NULL,NULL,1,NULL,3098
1550859288,96038ec5dc50aab6c7a514143ac41ab8,AcceptabilityJudgment,153,0,filler_ungram,NULL,Al hospital faltan recursos y por eso los pacientes que llegan a urgenicas tienen que esperar.
1550859288,96038ec5dc50aab6c7a514143ac41ab8,AcceptabilityJudgment,153,0,filler_ungram,NULL,NULL,1,NULL,6459
1550859288,96038ec5dc50aab6c7a514143ac41ab8,AcceptabilityJudgment,77,0,local_short,23,A la profesora le han lavado la chaqueta que ensuciaron bastante los niños en la tintorería nueva.
1550859288,96038ec5dc50aab6c7a514143ac41ab8,AcceptabilityJudgment,77,0,local_short,23,NULL,1,NULL,8776
1550859288,96038ec5dc50aab6c7a514143ac41ab8,AcceptabilityJudgment,137,0,filler_ungram,NULL,¿Quién le ha dado permiso al portero que debería estar en la puerta por tomarse un descanso?
1550859288,96038ec5dc50aab6c7a514143ac41ab8,AcceptabilityJudgment,137,0,filler_ungram,NULL,NULL,3,NULL,10403
1550859288,96038ec5dc50aab6c7a514143ac41ab8,AcceptabilityJudgment,110,0,filler_gram,NULL,¿Los bebés tienen que dormir más de catorce horas al día o es solo una leyenda urbana?
1550859288,96038ec5dc50aab6c7a514143ac41ab8,AcceptabilityJudgment,110,0,filler_gram,NULL,NULL,7,NULL,7373
1550859288,96038ec5dc50aab6c7a514143ac41ab8,AcceptabilityJudgment,159,0,filler_ungram,NULL,Todos los bailarines que fueron seleccionadas para el programa tienen muchos años de experiencia a sus espaldas.
1550859288,96038ec5dc50aab6c7a514143ac41ab8,AcceptabilityJudgment,159,0,filler_ungram,NULL,NULL,1,NULL,11024
1550859288,96038ec5dc50aab6c7a514143ac41ab8,AcceptabilityJudgment,165,0,filler_ungram,NULL,El hermano de Diego sospecha que el regalo no es para ella misma porque no es su cumpleaños.
1550859288,96038ec5dc50aab6c7a514143ac41ab8,AcceptabilityJudgment,165,0,filler_ungram,NULL,NULL,1,NULL,7636
1550859288,96038ec5dc50aab6c7a514143ac41ab8,AcceptabilityJudgment,82,0,wh_short,4,¿A qué actriz le han dedicado la canción que aparece en la película como muestra de admiración?
1550859288,96038ec5dc50aab6c7a514143ac41ab8,AcceptabilityJudgment,82,0,wh_short,4,NULL,7,NULL,5322
1550859288,96038ec5dc50aab6c7a514143ac41ab8,AcceptabilityJudgment,161,0,filler_ungram,NULL,La alcaldesa ha decretado que todos los bares que no tenga licencia tienen que cerrar de noche.
1550859288,96038ec5dc50aab6c7a514143ac41ab8,AcceptabilityJudgment,161,0,filler_ungram,NULL,NULL,1,NULL,5019
1550859288,96038ec5dc50aab6c7a514143ac41ab8,AcceptabilityJudgment,168,0,filler_ungram,NULL,Idoia ha tenido un bebé y ahora no tiene tiempo para morder con sus compañeros de trabajo.
1550859288,96038ec5dc50aab6c7a514143ac41ab8,AcceptabilityJudgment,168,0,filler_ungram,NULL,NULL,1,NULL,5948
1550859288,96038ec5dc50aab6c7a514143ac41ab8,AcceptabilityJudgment,65,0,local_short,11,A la pasajera le han perdido la maleta que retuvo el guarda jurado al llegar al aeropuerto.
1550859288,96038ec5dc50aab6c7a514143ac41ab8,AcceptabilityJudgment,65,0,local_short,11,NULL,2,NULL,5339
1550859288,96038ec5dc50aab6c7a514143ac41ab8,AcceptabilityJudgment,120,0,filler_gram,NULL,El frutero que vende papayas en la plaza de abastos nació en Cuba pero lleva aquí años.
1550859288,96038ec5dc50aab6c7a514143ac41ab8,AcceptabilityJudgment,120,0,filler_gram,NULL,NULL,7,NULL,6174
1550859288,96038ec5dc50aab6c7a514143ac41ab8,AcceptabilityJudgment,140,0,filler_ungram,NULL,¿Es verdad que Yolanda le ha pedido al técnico una cita y ella le ha dado largas?
1550859288,96038ec5dc50aab6c7a514143ac41ab8,AcceptabilityJudgment,140,0,filler_ungram,NULL,NULL,7,NULL,7031
1550859288,96038ec5dc50aab6c7a514143ac41ab8,AcceptabilityJudgment,131,0,filler_ungram,NULL,¿A cuánto está las patatas de guisar y los pimientos de Guernica en el mercado de Bilbao?
1550859288,96038ec5dc50aab6c7a514143ac41ab8,AcceptabilityJudgment,131,0,filler_ungram,NULL,NULL,1,NULL,4673
1550859288,96038ec5dc50aab6c7a514143ac41ab8,AcceptabilityJudgment,32,0,wh_long,2,¿A qué chica que registró la policía secreta le han confiscado la mochila porque puede ser peligrosa?
1550859288,96038ec5dc50aab6c7a514143ac41ab8,AcceptabilityJudgment,32,0,wh_long,2,NULL,1,NULL,3462
1550859288,96038ec5dc50aab6c7a514143ac41ab8,AcceptabilityJudgment,113,0,filler_gram,NULL,¿Le puede decir al Consejero de Educación que le volveré a llamar posiblemente la semana que viene?
1550859288,96038ec5dc50aab6c7a514143ac41ab8,AcceptabilityJudgment,113,0,filler_gram,NULL,NULL,7,NULL,5567
1550859288,96038ec5dc50aab6c7a514143ac41ab8,AcceptabilityJudgment,146,0,filler_ungram,NULL,¿Cuál de los socios del gimnasio ha oído cómo el monitor insultaba los alumnos en clase?
1550859288,96038ec5dc50aab6c7a514143ac41ab8,AcceptabilityJudgment,146,0,filler_ungram,NULL,NULL,1,NULL,5367
1550859288,96038ec5dc50aab6c7a514143ac41ab8,AcceptabilityJudgment,114,0,filler_gram,NULL,¿Es posible que los cientifícos se hayan equivocado y que la tierra no gire alrededor del Sol?
1550859288,96038ec5dc50aab6c7a514143ac41ab8,AcceptabilityJudgment,114,0,filler_gram,NULL,NULL,7,NULL,31052
1550859288,96038ec5dc50aab6c7a514143ac41ab8,AcceptabilityJudgment,174,0,filler_ungram,NULL,Tanto los ancianos como los niños pequeños estoy dentro de la población de riesgo cuando hace calor.
1550859288,96038ec5dc50aab6c7a514143ac41ab8,AcceptabilityJudgment,174,0,filler_ungram,NULL,NULL,1,NULL,4110
1550859288,96038ec5dc50aab6c7a514143ac41ab8,AcceptabilityJudgment,44,0,wh_long,14,¿A qué periodista que temen todos los políticos le han dado el programa por su gran profesionalidad?
1550859288,96038ec5dc50aab6c7a514143ac41ab8,AcceptabilityJudgment,44,0,wh_long,14,NULL,7,NULL,12065
1550859288,96038ec5dc50aab6c7a514143ac41ab8,AcceptabilityJudgment,160,0,filler_ungram,NULL,Jon sabe que las galletas que compra en el supermercado no son las más apropiados para él.
1550859288,96038ec5dc50aab6c7a514143ac41ab8,AcceptabilityJudgment,160,0,filler_ungram,NULL,NULL,7,NULL,4993
1550859288,96038ec5dc50aab6c7a514143ac41ab8,AcceptabilityJudgment,112,0,filler_gram,NULL,¿Qué tipo de ropa le gusta ponerse a Julen para pasarse el domingo tirado en el sofá?
1550859288,96038ec5dc50aab6c7a514143ac41ab8,AcceptabilityJudgment,112,0,filler_gram,NULL,NULL,7,NULL,15463
1550859288,96038ec5dc50aab6c7a514143ac41ab8,AcceptabilityJudgment,128,0,filler_ungram,NULL,¿A veces piensas que las estrellas que brilla mucho en el cielo por la noche son ovnis?
1550859288,96038ec5dc50aab6c7a514143ac41ab8,AcceptabilityJudgment,128,0,filler_ungram,NULL,NULL,1,NULL,3873
1550859288,96038ec5dc50aab6c7a514143ac41ab8,AcceptabilityJudgment,86,0,wh_short,8,¿A qué concursante le han hecho la pregunta que eligieron todos los espectadores para llevarse el bote?
1550859288,96038ec5dc50aab6c7a514143ac41ab8,AcceptabilityJudgment,86,0,wh_short,8,NULL,7,NULL,5006
1550859288,96038ec5dc50aab6c7a514143ac41ab8,AcceptabilityJudgment,117,0,filler_gram,NULL,A muchos de los nadadores no les hizo gracia que el ayuntamiento decidiera cerrar la piscina municipal.
1550859288,96038ec5dc50aab6c7a514143ac41ab8,AcceptabilityJudgment,117,0,filler_gram,NULL,NULL,7,NULL,6243
1550859288,96038ec5dc50aab6c7a514143ac41ab8,AcceptabilityJudgment,125,0,filler_gram,NULL,Itziar se ha hecho daño en la mano al intentar matar una mosca e irá al médico.
1550859288,96038ec5dc50aab6c7a514143ac41ab8,AcceptabilityJudgment,125,0,filler_gram,NULL,NULL,7,NULL,28696
1550859288,96038ec5dc50aab6c7a514143ac41ab8,AcceptabilityJudgment,118,0,filler_gram,NULL,A la policía le parece raro que el ministro no quiera presentar su declaración de la renta.
1550859288,96038ec5dc50aab6c7a514143ac41ab8,AcceptabilityJudgment,118,0,filler_gram,NULL,NULL,7,NULL,37478
1550859288,96038ec5dc50aab6c7a514143ac41ab8,AcceptabilityJudgment,102,0,wh_short,24,¿A qué arquitecta le han parado la obra que contrató la promotora inmobiliaria por no tener permiso?
1550859288,96038ec5dc50aab6c7a514143ac41ab8,AcceptabilityJudgment,102,0,wh_short,24,NULL,1,NULL,6992
1550859288,96038ec5dc50aab6c7a514143ac41ab8,AcceptabilityJudgment,155,0,filler_ungram,NULL,Al apagar la luz viera una sombra y me levanté de la cama para ver qué era.
1550859288,96038ec5dc50aab6c7a514143ac41ab8,AcceptabilityJudgment,155,0,filler_ungram,NULL,NULL,1,NULL,2625
1550859288,96038ec5dc50aab6c7a514143ac41ab8,AcceptabilityJudgment,139,0,filler_ungram,NULL,¿Por qué a los italianos da tanto asco que se le ponga piña a la pizza?
1550859288,96038ec5dc50aab6c7a514143ac41ab8,AcceptabilityJudgment,139,0,filler_ungram,NULL,NULL,1,NULL,6657
1550859288,96038ec5dc50aab6c7a514143ac41ab8,AcceptabilityJudgment,150,0,filler_ungram,NULL,¿Es cierto que los manifestantes ha cortado el acceso al palacio de la Moncloa con neumáticos ardiendo?
1550859288,96038ec5dc50aab6c7a514143ac41ab8,AcceptabilityJudgment,150,0,filler_ungram,NULL,NULL,1,NULL,4050
1550859288,96038ec5dc50aab6c7a514143ac41ab8,AcceptabilityJudgment,52,0,wh_long,22,¿A qué enfermera que recomendó el equipo médico le han enseñado el calzado para tratar dolores musculares?
1550859288,96038ec5dc50aab6c7a514143ac41ab8,AcceptabilityJudgment,52,0,wh_long,22,NULL,3,NULL,6994
1550859288,96038ec5dc50aab6c7a514143ac41ab8,AcceptabilityJudgment,127,0,filler_ungram,NULL,¿Al niño han castigado por decir palabrotas o por romper los juguetes que eran del profesor?
1550859288,96038ec5dc50aab6c7a514143ac41ab8,AcceptabilityJudgment,127,0,filler_ungram,NULL,NULL,1,NULL,4318
1550859288,96038ec5dc50aab6c7a514143ac41ab8,AcceptabilityJudgment,163,0,filler_ungram,NULL,Para las deshauciados el tener que volver a casa de sus padres es un proceso muy traumático.
1550859288,96038ec5dc50aab6c7a514143ac41ab8,AcceptabilityJudgment,163,0,filler_ungram,NULL,NULL,2,NULL,3363
1550859288,96038ec5dc50aab6c7a514143ac41ab8,AcceptabilityJudgment,151,0,filler_ungram,NULL,A veces los estudiantes que menos estudian son lo que dan más trabajo en la evaluación final.
1550859288,96038ec5dc50aab6c7a514143ac41ab8,AcceptabilityJudgment,151,0,filler_ungram,NULL,NULL,7,NULL,7198
1550859288,96038ec5dc50aab6c7a514143ac41ab8,AcceptabilityJudgment,11,0,local_long,5,A la investigadora que premió la Universidad Complutense le han publicado el estudio en una revista importante.
1550859288,96038ec5dc50aab6c7a514143ac41ab8,AcceptabilityJudgment,11,0,local_long,5,NULL,1,NULL,3849
1550859288,96038ec5dc50aab6c7a514143ac41ab8,AcceptabilityJudgment,143,0,filler_ungram,NULL,¿Hay algo que deban saber los miembros del comité de selección antes de coger una decisión definitiva?
1550859288,96038ec5dc50aab6c7a514143ac41ab8,AcceptabilityJudgment,143,0,filler_ungram,NULL,NULL,1,NULL,7841
1550859288,96038ec5dc50aab6c7a514143ac41ab8,AcceptabilityJudgment,141,0,filler_ungram,NULL,¿Cómo sabe Edurne que todos los pedidos que se ha hecho hoy se tienen que entregar mañana?
1550859288,96038ec5dc50aab6c7a514143ac41ab8,AcceptabilityJudgment,141,0,filler_ungram,NULL,NULL,1,NULL,4286
1550859288,96038ec5dc50aab6c7a514143ac41ab8,AcceptabilityJudgment,48,0,wh_long,18,¿A qué administrativa que investga la policía anticorrupción le han dado el contrato para que lo oculte?
1550859288,96038ec5dc50aab6c7a514143ac41ab8,AcceptabilityJudgment,48,0,wh_long,18,NULL,7,NULL,7531
1550859288,96038ec5dc50aab6c7a514143ac41ab8,AcceptabilityJudgment,106,0,filler_gram,NULL,¿A qué protectora de animales ha ido David para adoptar un perro para que le haga compañía?
1550859288,96038ec5dc50aab6c7a514143ac41ab8,AcceptabilityJudgment,106,0,filler_gram,NULL,NULL,7,NULL,7963
1550859288,96038ec5dc50aab6c7a514143ac41ab8,AcceptabilityJudgment,167,0,filler_ungram,NULL,Luis no sabe si prefierese los yogures de limón o las natillas de vainilla con galleta María.
1550859288,96038ec5dc50aab6c7a514143ac41ab8,AcceptabilityJudgment,167,0,filler_ungram,NULL,NULL,1,NULL,3771
1550859288,96038ec5dc50aab6c7a514143ac41ab8,AcceptabilityJudgment,111,0,filler_gram,NULL,¿Quién crees que ha podido llevarse las llaves de la puerta principal del almacén sin darse cuenta?
1550859288,96038ec5dc50aab6c7a514143ac41ab8,AcceptabilityJudgment,111,0,filler_gram,NULL,NULL,7,NULL,7973
1550859288,96038ec5dc50aab6c7a514143ac41ab8,AcceptabilityJudgment,19,0,local_long,13,A la famosa que admiran todos los adolescentes le han cancelado la serie por no tener audiencia.
1550859288,96038ec5dc50aab6c7a514143ac41ab8,AcceptabilityJudgment,19,0,local_long,13,NULL,7,NULL,5114
1550859288,96038ec5dc50aab6c7a514143ac41ab8,AcceptabilityJudgment,144,0,filler_ungram,NULL,¿El jefe sería capaz con dejar a su familia y fugarse con el dinero de la empresa?
1550859288,96038ec5dc50aab6c7a514143ac41ab8,AcceptabilityJudgment,144,0,filler_ungram,NULL,NULL,1,NULL,3358
1550859288,96038ec5dc50aab6c7a514143ac41ab8,AcceptabilityJudgment,130,0,filler_ungram,NULL,¿A los pueblos del sur de España hace falta agua procedente de los embalses del norte?
1550859288,96038ec5dc50aab6c7a514143ac41ab8,AcceptabilityJudgment,130,0,filler_ungram,NULL,NULL,1,NULL,3449
1550859288,96038ec5dc50aab6c7a514143ac41ab8,AcceptabilityJudgment,162,0,filler_ungram,NULL,Parece que la presidenta quieren que los trabajadores que han hecho huelga sea penalizados de alguna manera.
1550859288,96038ec5dc50aab6c7a514143ac41ab8,AcceptabilityJudgment,162,0,filler_ungram,NULL,NULL,1,NULL,4988
1550859288,96038ec5dc50aab6c7a514143ac41ab8,AcceptabilityJudgment,23,0,local_long,17,A la cocinera que elogian los críticos culinarios le han copiado el postre sin que diera permiso.
1550859288,96038ec5dc50aab6c7a514143ac41ab8,AcceptabilityJudgment,23,0,local_long,17,NULL,7,NULL,5446
1550859288,96038ec5dc50aab6c7a514143ac41ab8,AcceptabilityJudgment,124,0,filler_gram,NULL,Los cuadros estaban iluminados por dos lámparas enormes pero aún así no se podían apreciar los detalles.
1550859288,96038ec5dc50aab6c7a514143ac41ab8,AcceptabilityJudgment,124,0,filler_gram,NULL,NULL,7,NULL,6472
1550859288,96038ec5dc50aab6c7a514143ac41ab8,AcceptabilityJudgment,172,0,filler_ungram,NULL,Ibon ha comprado velas aromáticos para ponerlas alrededor de la bañera y darle una sorpresa a Leire.
1550859288,96038ec5dc50aab6c7a514143ac41ab8,AcceptabilityJudgment,172,0,filler_ungram,NULL,NULL,2,NULL,12285
1550859288,96038ec5dc50aab6c7a514143ac41ab8,AcceptabilityJudgment,135,0,filler_ungram,NULL,¿Qué crees que ha dicho el alcalde con el casino que han construido junto a la playa?
1550859288,96038ec5dc50aab6c7a514143ac41ab8,AcceptabilityJudgment,135,0,filler_ungram,NULL,NULL,1,NULL,5186
1550859288,96038ec5dc50aab6c7a514143ac41ab8,AcceptabilityJudgment,27,0,local_long,21,A la empresaria que boicotearon las grandes empresas le han enseñado el plan para que lo evalúe.
1550859288,96038ec5dc50aab6c7a514143ac41ab8,AcceptabilityJudgment,27,0,local_long,21,NULL,7,NULL,7115
1550859288,96038ec5dc50aab6c7a514143ac41ab8,AcceptabilityJudgment,164,0,filler_ungram,NULL,Varios de los vecinos estaban viendo por la ventana y cuchicheaban mientras veían cómo ardía el contenedor.
1550859288,96038ec5dc50aab6c7a514143ac41ab8,AcceptabilityJudgment,164,0,filler_ungram,NULL,NULL,1,NULL,9122
1550859288,96038ec5dc50aab6c7a514143ac41ab8,AcceptabilityJudgment,109,0,filler_gram,NULL,¿Juan piensa que estamos enfadados porque no ha venido a cenar o porque ya no le llamamos?
1550859288,96038ec5dc50aab6c7a514143ac41ab8,AcceptabilityJudgment,109,0,filler_gram,NULL,NULL,7,NULL,20672
1550859288,96038ec5dc50aab6c7a514143ac41ab8,AcceptabilityJudgment,148,0,filler_ungram,NULL,¿Por qué Alain insiste en seguir querido ser DJ cuando todos opinan que se le da fatal?
1550859288,96038ec5dc50aab6c7a514143ac41ab8,AcceptabilityJudgment,148,0,filler_ungram,NULL,NULL,1,NULL,6785
1550859288,96038ec5dc50aab6c7a514143ac41ab8,AcceptabilityJudgment,15,0,local_long,9,A la ministra que criticó duramente la oposición le han publicado el libro después de mucha polémica.
1550859288,96038ec5dc50aab6c7a514143ac41ab8,AcceptabilityJudgment,15,0,local_long,9,NULL,7,NULL,7719
1550859288,96038ec5dc50aab6c7a514143ac41ab8,AcceptabilityJudgment,156,0,filler_ungram,NULL,Al conserje lo han pillado robando en la oficina del director general cuando no habían nadie alrededor.
1550859288,96038ec5dc50aab6c7a514143ac41ab8,AcceptabilityJudgment,156,0,filler_ungram,NULL,NULL,1,NULL,6555
1550859288,96038ec5dc50aab6c7a514143ac41ab8,AcceptabilityJudgment,126,0,filler_gram,NULL,El acusado se negó a responder ninguna pregunta y el juez pidió que se sentara de nuevo.
1550859288,96038ec5dc50aab6c7a514143ac41ab8,AcceptabilityJudgment,126,0,filler_gram,NULL,NULL,1,NULL,5890
1550859288,96038ec5dc50aab6c7a514143ac41ab8,AcceptabilityJudgment,122,0,filler_gram,NULL,No era la primera vez que estallaba una discusión durante el desayuno por culpa de la guerra.
1550859288,96038ec5dc50aab6c7a514143ac41ab8,AcceptabilityJudgment,122,0,filler_gram,NULL,NULL,7,NULL,6615
1550859288,96038ec5dc50aab6c7a514143ac41ab8,AcceptabilityJudgment,7,0,local_long,1,A la abogada que buscaba el secretario judicial le han entregado la documentación para que la archive.
1550859288,96038ec5dc50aab6c7a514143ac41ab8,AcceptabilityJudgment,7,0,local_long,1,NULL,7,NULL,9304
1550859288,96038ec5dc50aab6c7a514143ac41ab8,AcceptabilityJudgment,173,0,filler_ungram,NULL,Mucha gente opta por regalar ramos de flores como detalle cuando él mismo se va de una empresa.
1550859288,96038ec5dc50aab6c7a514143ac41ab8,AcceptabilityJudgment,173,0,filler_ungram,NULL,NULL,7,NULL,13048
1550859288,96038ec5dc50aab6c7a514143ac41ab8,AcceptabilityJudgment,115,0,filler_gram,NULL,Al coche de mi hermano le toca pasar la revisión en el taller que recomienda el fabricante.
1550859288,96038ec5dc50aab6c7a514143ac41ab8,AcceptabilityJudgment,115,0,filler_gram,NULL,NULL,7,NULL,54730
1550859288,96038ec5dc50aab6c7a514143ac41ab8,AcceptabilityJudgment,133,0,filler_ungram,NULL,¿A cuántos de los asistentes ha parecido interesante incluir una mesa redonda sobre el maltrato infantil?
1550859288,96038ec5dc50aab6c7a514143ac41ab8,AcceptabilityJudgment,133,0,filler_ungram,NULL,NULL,1,NULL,15804
1550859288,96038ec5dc50aab6c7a514143ac41ab8,AcceptabilityJudgment,61,0,local_short,7,A la cantante le han boicoteado el disco que critican las asociaciones feministas por sus letras machistas.
1550859288,96038ec5dc50aab6c7a514143ac41ab8,AcceptabilityJudgment,61,0,local_short,7,NULL,7,NULL,9483
1550859288,96038ec5dc50aab6c7a514143ac41ab8,AcceptabilityJudgment,169,0,filler_ungram,NULL,Mikel opina que a Laura debe de faltar todavía un poco para defender su tesis doctoral.
1550859288,96038ec5dc50aab6c7a514143ac41ab8,AcceptabilityJudgment,169,0,filler_ungram,NULL,NULL,1,NULL,6571
1550859288,96038ec5dc50aab6c7a514143ac41ab8,AcceptabilityJudgment,142,0,filler_ungram,NULL,¿María le ha preguntado a su madre dónde había ido a recoger la blusa a la lavandería?
1550859288,96038ec5dc50aab6c7a514143ac41ab8,AcceptabilityJudgment,142,0,filler_ungram,NULL,NULL,7,NULL,5781
1550859288,96038ec5dc50aab6c7a514143ac41ab8,AcceptabilityJudgment,134,0,filler_ungram,NULL,¿A Kepa le parece bien que vayamos a cenar con él mismo o prefiere quedarse solo en casa?
1550859288,96038ec5dc50aab6c7a514143ac41ab8,AcceptabilityJudgment,134,0,filler_ungram,NULL,NULL,1,NULL,5491
1550859288,96038ec5dc50aab6c7a514143ac41ab8,AcceptabilityJudgment,98,0,wh_short,20,¿A qué dependienta le han ofrecido el puesto que quieren todos los trabajdores después de tres años?
1550859288,96038ec5dc50aab6c7a514143ac41ab8,AcceptabilityJudgment,98,0,wh_short,20,NULL,2,NULL,6015
1550859288,96038ec5dc50aab6c7a514143ac41ab8,AcceptabilityJudgment,105,0,filler_gram,NULL,¿A quién crees que han pillado robando latas de cerveza en el centro comercial de la esquina?
1550859288,96038ec5dc50aab6c7a514143ac41ab8,AcceptabilityJudgment,105,0,filler_gram,NULL,NULL,7,NULL,5308
1550859288,96038ec5dc50aab6c7a514143ac41ab8,AcceptabilityJudgment,108,0,filler_gram,NULL,¿Por qué bastantes adolescentes creen que todas las decisiones que toman sus padres son para hacerles rabiar?
1550859288,96038ec5dc50aab6c7a514143ac41ab8,AcceptabilityJudgment,108,0,filler_gram,NULL,NULL,7,NULL,7081
1550859288,96038ec5dc50aab6c7a514143ac41ab8,AcceptabilityJudgment,136,0,filler_ungram,NULL,¿María ha descubierto que los contratos que firmaron la constructora no cumplen con la nueva normativa europea?
1550859288,96038ec5dc50aab6c7a514143ac41ab8,AcceptabilityJudgment,136,0,filler_ungram,NULL,NULL,7,NULL,6861
1550859288,96038ec5dc50aab6c7a514143ac41ab8,AcceptabilityJudgment,40,0,wh_long,10,¿A qué escritora que elogian los críticos literarios le han censurado la novela porque habla de corrupción?
1550859288,96038ec5dc50aab6c7a514143ac41ab8,AcceptabilityJudgment,40,0,wh_long,10,NULL,7,NULL,15048
1550859288,96038ec5dc50aab6c7a514143ac41ab8,AcceptabilityJudgment,107,0,filler_gram,NULL,¿Para quién has comprado las galletas que están encima de la mesa del comedor en una caja?
1550859288,96038ec5dc50aab6c7a514143ac41ab8,AcceptabilityJudgment,107,0,filler_gram,NULL,NULL,7,NULL,6182
1550859288,96038ec5dc50aab6c7a514143ac41ab8,AcceptabilityJudgment,116,0,filler_gram,NULL,Al pasar por la casa que queríamos comprar vimos en un cartel que ya se había vendido.
1550859288,96038ec5dc50aab6c7a514143ac41ab8,AcceptabilityJudgment,116,0,filler_gram,NULL,NULL,7,NULL,6074
1550859288,96038ec5dc50aab6c7a514143ac41ab8,AcceptabilityJudgment,157,0,filler_ungram,NULL,A Pablo no parece normal que haya que pedir el voto por correo dos meses antes.
1550859288,96038ec5dc50aab6c7a514143ac41ab8,AcceptabilityJudgment,157,0,filler_ungram,NULL,NULL,7,NULL,5037
1550859288,96038ec5dc50aab6c7a514143ac41ab8,AcceptabilityJudgment,94,0,wh_short,16,¿A qué modelo le han pospuesto el evento que querían muchas agencias internacionales por el mal tiempo?
1550859288,96038ec5dc50aab6c7a514143ac41ab8,AcceptabilityJudgment,94,0,wh_short,16,NULL,7,NULL,6419
1550859288,96038ec5dc50aab6c7a514143ac41ab8,AcceptabilityJudgment,147,0,filler_ungram,NULL,¿Adónde Josu suele ir cuando se va en coche los fines de semana sin avisar a nadie?
1550859288,96038ec5dc50aab6c7a514143ac41ab8,AcceptabilityJudgment,147,0,filler_ungram,NULL,NULL,1,NULL,3509
1550859288,96038ec5dc50aab6c7a514143ac41ab8,AcceptabilityJudgment,138,0,filler_ungram,NULL,¿Dónde ha puesto al banquero el sobre que le entregó el político ayer cuando visitó la sucursal?
1550859288,96038ec5dc50aab6c7a514143ac41ab8,AcceptabilityJudgment,138,0,filler_ungram,NULL,NULL,1,NULL,3891
1550859288,96038ec5dc50aab6c7a514143ac41ab8,AcceptabilityJudgment,170,0,filler_ungram,NULL,Skype es un programa de gran utlidad para poder comunicarnos cuando no pudimos tener reuniones en persona.
1550859288,96038ec5dc50aab6c7a514143ac41ab8,AcceptabilityJudgment,170,0,filler_ungram,NULL,NULL,7,NULL,6069
1550859288,96038ec5dc50aab6c7a514143ac41ab8,AcceptabilityJudgment,123,0,filler_gram,NULL,Lorena y Jone se hicieron muy amigas durante el Erasmus y ahora se ven todos los años.
1550859288,96038ec5dc50aab6c7a514143ac41ab8,AcceptabilityJudgment,123,0,filler_gram,NULL,NULL,7,NULL,17841
1550859288,96038ec5dc50aab6c7a514143ac41ab8,AcceptabilityJudgment,73,0,local_short,19,A la candidata le han criticado el proyecto que proponen los principales sindicatos antes de poder presentarlo.
1550859288,96038ec5dc50aab6c7a514143ac41ab8,AcceptabilityJudgment,73,0,local_short,19,NULL,7,NULL,13613
1550859288,96038ec5dc50aab6c7a514143ac41ab8,AcceptabilityJudgment,171,0,filler_ungram,NULL,Los expertos dicen que los productos de Mercadona fuesen de una calidad similar a los de marca.
1550859288,96038ec5dc50aab6c7a514143ac41ab8,AcceptabilityJudgment,171,0,filler_ungram,NULL,NULL,1,NULL,7047
1550859288,96038ec5dc50aab6c7a514143ac41ab8,AcceptabilityJudgment,103,0,filler_gram,NULL,¿A cuál de los camareros que trabajan en la cervecería han visto borracho por la calle Dato?
1550859288,96038ec5dc50aab6c7a514143ac41ab8,AcceptabilityJudgment,103,0,filler_gram,NULL,NULL,7,NULL,9465
1550859288,96038ec5dc50aab6c7a514143ac41ab8,AcceptabilityJudgment,149,0,filler_ungram,NULL,¿Por dónde tienen que ir Andrea si quiere llegar a la plaza de la catedral cuanto antes?
1550859288,96038ec5dc50aab6c7a514143ac41ab8,AcceptabilityJudgment,149,0,filler_ungram,NULL,NULL,1,NULL,4902
1550859288,96038ec5dc50aab6c7a514143ac41ab8,AcceptabilityJudgment,69,0,local_short,15,A la señora le han embargado el piso que visitaron los trabajadores sociales porque no tiene recursos.
1550859288,96038ec5dc50aab6c7a514143ac41ab8,AcceptabilityJudgment,69,0,local_short,15,NULL,7,NULL,11101
1550859288,96038ec5dc50aab6c7a514143ac41ab8,AcceptabilityJudgment,158,0,filler_ungram,NULL,A menudo perdemos la noción del tiempo cuando estáis haciendo algo divertido con nuestra pareja o amigos.
1550859288,96038ec5dc50aab6c7a514143ac41ab8,AcceptabilityJudgment,158,0,filler_ungram,NULL,NULL,1,NULL,5260
1550859288,96038ec5dc50aab6c7a514143ac41ab8,AcceptabilityJudgment,154,0,filler_ungram,NULL,A Vitoria turistas llegan que quieren ver la catedral pero normalmente se quedan a dormir en Bilbao.
1550859288,96038ec5dc50aab6c7a514143ac41ab8,AcceptabilityJudgment,154,0,filler_ungram,NULL,NULL,1,NULL,3562
1550859288,96038ec5dc50aab6c7a514143ac41ab8,AcceptabilityJudgment,129,0,filler_ungram,NULL,¿A Juan le han dicho que tiene que trabajar el lunes por recuperar horas o puede descansar?
1550859288,96038ec5dc50aab6c7a514143ac41ab8,AcceptabilityJudgment,129,0,filler_ungram,NULL,NULL,1,NULL,7108
1550859288,96038ec5dc50aab6c7a514143ac41ab8,AcceptabilityJudgment,90,0,wh_short,12,¿A qué fugitiva le han quitado el botín que buscaba la Guardia Civil cuando cruzaba la frontera?
1550859288,96038ec5dc50aab6c7a514143ac41ab8,AcceptabilityJudgment,90,0,wh_short,12,NULL,7,NULL,4196
1550859288,96038ec5dc50aab6c7a514143ac41ab8,AcceptabilityJudgment,132,0,filler_ungram,NULL,¿A qué edad empieza a consumir bebidas alcohólicas los jóvenes en ciudades grandes como Madrid o Barcelona?
1550859288,96038ec5dc50aab6c7a514143ac41ab8,AcceptabilityJudgment,132,0,filler_ungram,NULL,NULL,1,NULL,5391
1550859288,96038ec5dc50aab6c7a514143ac41ab8,AcceptabilityJudgment,119,0,filler_gram,NULL,Miren quiere que los candidatos que estén interesados en el puesto manden su currículum por correo electrónico.
1550859288,96038ec5dc50aab6c7a514143ac41ab8,AcceptabilityJudgment,119,0,filler_gram,NULL,NULL,7,NULL,6649
1550859288,96038ec5dc50aab6c7a514143ac41ab8,AcceptabilityJudgment,166,0,filler_ungram,NULL,La gata de la vecina de debajo tiene la costumbre de esconderse detrás del sofá del portal.
1550859288,96038ec5dc50aab6c7a514143ac41ab8,AcceptabilityJudgment,166,0,filler_ungram,NULL,NULL,1,NULL,5615
1550859288,96038ec5dc50aab6c7a514143ac41ab8,AcceptabilityJudgment,36,0,wh_long,6,¿A qué ejecutiva que apoya la junta directiva le han rechazado la propuesta en la última votación?
1550859288,96038ec5dc50aab6c7a514143ac41ab8,AcceptabilityJudgment,36,0,wh_long,6,NULL,7,NULL,7618
1550859288,96038ec5dc50aab6c7a514143ac41ab8,AcceptabilityJudgment,104,0,filler_gram,NULL,¿A qué ha venido el cliente que se ha ido montando un espectáculo e insultando al encargado?
1550859288,96038ec5dc50aab6c7a514143ac41ab8,AcceptabilityJudgment,104,0,filler_gram,NULL,NULL,7,NULL,5029
1550859288,96038ec5dc50aab6c7a514143ac41ab8,AcceptabilityJudgment,121,0,filler_gram,NULL,Harry le ha dicho a Ron que después de la comida quiere ir a tomar un helado.
1550859288,96038ec5dc50aab6c7a514143ac41ab8,AcceptabilityJudgment,121,0,filler_gram,NULL,NULL,7,NULL,6011
1550859288,96038ec5dc50aab6c7a514143ac41ab8,AcceptabilityJudgment,152,0,filler_ungram,NULL,Al cocinero han despedido porque los clientes que vinieron ayer han puesto una reclamación contra él.
1550859288,96038ec5dc50aab6c7a514143ac41ab8,AcceptabilityJudgment,152,0,filler_ungram,NULL,NULL,1,NULL,3889
1550859288,96038ec5dc50aab6c7a514143ac41ab8,AcceptabilityJudgment,57,0,local_short,3,A la diseñadora le han roto el bolso que adoran todas las marcas al coser la cremallera.
1550859288,96038ec5dc50aab6c7a514143ac41ab8,AcceptabilityJudgment,57,0,local_short,3,NULL,1,NULL,8079
#
# Results on Friday February 22 2019 18:16:57 UTC.
# USER AGENT: Mozilla/5.0 (Linux; Android 6.0.1; Redmi 4) AppleWebKit/537.36 (KHTML, like Gecko) Chrome/72.0.3626.105 Mobile Safari/537.36
# Design number was non-random = 0
#
# Columns below this comment are as follows:
# 1. Time results were received.
# 2. MD5 hash of participant's IP address.
# 3. Controller name.
# 4. Item number.
# 5. Element number.
# 6. Type.
# 7. Group.
# 8. Field name.
# 9. Field value.
1550859418,e1ef608fbcf3d85bb2e66386e3197ce7,Form,0,0,intro,NULL,age,24
1550859418,e1ef608fbcf3d85bb2e66386e3197ce7,Form,0,0,intro,NULL,consent,yes
1550859418,e1ef608fbcf3d85bb2e66386e3197ce7,Form,0,0,intro,NULL,Spain,Si
1550859418,e1ef608fbcf3d85bb2e66386e3197ce7,Form,0,0,intro,NULL,Spanish,Si
1550859418,e1ef608fbcf3d85bb2e66386e3197ce7,Form,0,0,intro,NULL,sex,female
# The lines below this comment are in groups of 2.
# The formats of the lines in each of these groups are as follows:
#
# Line 1:
#     Col. 1: Time results were received.
#     Col. 2: MD5 hash of participant's IP address.
#     Col. 3: Controller name.
#     Col. 4: Item number.
#     Col. 5: Element number.
#     Col. 6: Type.
#     Col. 7: Group.
#     Col. 8: Sentence (or sentence MD5).
# Line 2:
#     Col. 1: Time results were received.
#     Col. 2: MD5 hash of participant's IP address.
#     Col. 3: Controller name.
#     Col. 4: Item number.
#     Col. 5: Element number.
#     Col. 6: Type.
#     Col. 7: Group.
#     Col. 8: Question (NULL if none).
#     Col. 9: Answer.
#     Col. 10: Whether or not answer was correct (NULL if N/A).
#     Col. 11: Time taken to answer.
1550859418,e1ef608fbcf3d85bb2e66386e3197ce7,AcceptabilityJudgment,3,0,practice,NULL,¿A quién le mandó qué libro?
1550859418,e1ef608fbcf3d85bb2e66386e3197ce7,AcceptabilityJudgment,3,0,practice,NULL,NULL,7,NULL,34506
1550859418,e1ef608fbcf3d85bb2e66386e3197ce7,AcceptabilityJudgment,5,0,practice,NULL,Susurró por qué lo había hecho.
1550859418,e1ef608fbcf3d85bb2e66386e3197ce7,AcceptabilityJudgment,5,0,practice,NULL,NULL,4,NULL,6179
1550859418,e1ef608fbcf3d85bb2e66386e3197ce7,AcceptabilityJudgment,1,0,practice,NULL,Pintó el artista retratos terribles.
1550859418,e1ef608fbcf3d85bb2e66386e3197ce7,AcceptabilityJudgment,1,0,practice,NULL,NULL,2,NULL,6178
1550859418,e1ef608fbcf3d85bb2e66386e3197ce7,AcceptabilityJudgment,2,0,practice,NULL,¿Qué poema conoces a la mujer que escribía?
1550859418,e1ef608fbcf3d85bb2e66386e3197ce7,AcceptabilityJudgment,2,0,practice,NULL,NULL,1,NULL,5063
1550859418,e1ef608fbcf3d85bb2e66386e3197ce7,AcceptabilityJudgment,4,0,practice,NULL,¿Qué coche que te has comprado?
1550859418,e1ef608fbcf3d85bb2e66386e3197ce7,AcceptabilityJudgment,4,0,practice,NULL,NULL,5,NULL,4646
1550859418,e1ef608fbcf3d85bb2e66386e3197ce7,AcceptabilityJudgment,6,0,practice,NULL,María no sabe qué libro leyó Juan.
1550859418,e1ef608fbcf3d85bb2e66386e3197ce7,AcceptabilityJudgment,6,0,practice,NULL,NULL,7,NULL,3536
1550859418,e1ef608fbcf3d85bb2e66386e3197ce7,AcceptabilityJudgment,174,0,filler_ungram,NULL,Tanto los ancianos como los niños pequeños estoy dentro de la población de riesgo cuando hace calor.
1550859418,e1ef608fbcf3d85bb2e66386e3197ce7,AcceptabilityJudgment,174,0,filler_ungram,NULL,NULL,1,NULL,7659
1550859418,e1ef608fbcf3d85bb2e66386e3197ce7,AcceptabilityJudgment,135,0,filler_ungram,NULL,¿Qué crees que ha dicho el alcalde con el casino que han construido junto a la playa?
1550859418,e1ef608fbcf3d85bb2e66386e3197ce7,AcceptabilityJudgment,135,0,filler_ungram,NULL,NULL,2,NULL,8133
1550859418,e1ef608fbcf3d85bb2e66386e3197ce7,AcceptabilityJudgment,145,0,filler_ungram,NULL,¿Qué coche Asier ha visto merodeando por la zona a la misma hora que explotó la bomba?
1550859418,e1ef608fbcf3d85bb2e66386e3197ce7,AcceptabilityJudgment,145,0,filler_ungram,NULL,NULL,3,NULL,9593
1550859418,e1ef608fbcf3d85bb2e66386e3197ce7,AcceptabilityJudgment,61,0,local_short,7,A la cantante le han boicoteado el disco que critican las asociaciones feministas por sus letras machistas.
1550859418,e1ef608fbcf3d85bb2e66386e3197ce7,AcceptabilityJudgment,61,0,local_short,7,NULL,2,NULL,10407
1550859418,e1ef608fbcf3d85bb2e66386e3197ce7,AcceptabilityJudgment,138,0,filler_ungram,NULL,¿Dónde ha puesto al banquero el sobre que le entregó el político ayer cuando visitó la sucursal?
1550859418,e1ef608fbcf3d85bb2e66386e3197ce7,AcceptabilityJudgment,138,0,filler_ungram,NULL,NULL,2,NULL,1233
1550859418,e1ef608fbcf3d85bb2e66386e3197ce7,AcceptabilityJudgment,106,0,filler_gram,NULL,¿A qué protectora de animales ha ido David para adoptar un perro para que le haga compañía?
1550859418,e1ef608fbcf3d85bb2e66386e3197ce7,AcceptabilityJudgment,106,0,filler_gram,NULL,NULL,7,NULL,5738
1550859418,e1ef608fbcf3d85bb2e66386e3197ce7,AcceptabilityJudgment,168,0,filler_ungram,NULL,Idoia ha tenido un bebé y ahora no tiene tiempo para morder con sus compañeros de trabajo.
1550859418,e1ef608fbcf3d85bb2e66386e3197ce7,AcceptabilityJudgment,168,0,filler_ungram,NULL,NULL,1,NULL,6250
1550859418,e1ef608fbcf3d85bb2e66386e3197ce7,AcceptabilityJudgment,127,0,filler_ungram,NULL,¿Al niño han castigado por decir palabrotas o por romper los juguetes que eran del profesor?
1550859418,e1ef608fbcf3d85bb2e66386e3197ce7,AcceptabilityJudgment,127,0,filler_ungram,NULL,NULL,5,NULL,6722
1550859418,e1ef608fbcf3d85bb2e66386e3197ce7,AcceptabilityJudgment,52,0,wh_long,22,¿A qué enfermera que recomendó el equipo médico le han enseñado el calzado para tratar dolores musculares?
1550859418,e1ef608fbcf3d85bb2e66386e3197ce7,AcceptabilityJudgment,52,0,wh_long,22,NULL,4,NULL,10796
1550859418,e1ef608fbcf3d85bb2e66386e3197ce7,AcceptabilityJudgment,126,0,filler_gram,NULL,El acusado se negó a responder ninguna pregunta y el juez pidió que se sentara de nuevo.
1550859418,e1ef608fbcf3d85bb2e66386e3197ce7,AcceptabilityJudgment,126,0,filler_gram,NULL,NULL,6,NULL,7376
1550859418,e1ef608fbcf3d85bb2e66386e3197ce7,AcceptabilityJudgment,152,0,filler_ungram,NULL,Al cocinero han despedido porque los clientes que vinieron ayer han puesto una reclamación contra él.
1550859418,e1ef608fbcf3d85bb2e66386e3197ce7,AcceptabilityJudgment,152,0,filler_ungram,NULL,NULL,7,NULL,5558
1550859418,e1ef608fbcf3d85bb2e66386e3197ce7,AcceptabilityJudgment,40,0,wh_long,10,¿A qué escritora que elogian los críticos literarios le han censurado la novela porque habla de corrupción?
1550859418,e1ef608fbcf3d85bb2e66386e3197ce7,AcceptabilityJudgment,40,0,wh_long,10,NULL,7,NULL,5438
1550859418,e1ef608fbcf3d85bb2e66386e3197ce7,AcceptabilityJudgment,170,0,filler_ungram,NULL,Skype es un programa de gran utlidad para poder comunicarnos cuando no pudimos tener reuniones en persona.
1550859418,e1ef608fbcf3d85bb2e66386e3197ce7,AcceptabilityJudgment,170,0,filler_ungram,NULL,NULL,1,NULL,7310
1550859418,e1ef608fbcf3d85bb2e66386e3197ce7,AcceptabilityJudgment,108,0,filler_gram,NULL,¿Por qué bastantes adolescentes creen que todas las decisiones que toman sus padres son para hacerles rabiar?
1550859418,e1ef608fbcf3d85bb2e66386e3197ce7,AcceptabilityJudgment,108,0,filler_gram,NULL,NULL,7,NULL,7837
1550859418,e1ef608fbcf3d85bb2e66386e3197ce7,AcceptabilityJudgment,112,0,filler_gram,NULL,¿Qué tipo de ropa le gusta ponerse a Julen para pasarse el domingo tirado en el sofá?
1550859418,e1ef608fbcf3d85bb2e66386e3197ce7,AcceptabilityJudgment,112,0,filler_gram,NULL,NULL,7,NULL,5568
1550859418,e1ef608fbcf3d85bb2e66386e3197ce7,AcceptabilityJudgment,57,0,local_short,3,A la diseñadora le han roto el bolso que adoran todas las marcas al coser la cremallera.
1550859418,e1ef608fbcf3d85bb2e66386e3197ce7,AcceptabilityJudgment,57,0,local_short,3,NULL,1,NULL,5552
1550859418,e1ef608fbcf3d85bb2e66386e3197ce7,AcceptabilityJudgment,154,0,filler_ungram,NULL,A Vitoria turistas llegan que quieren ver la catedral pero normalmente se quedan a dormir en Bilbao.
1550859418,e1ef608fbcf3d85bb2e66386e3197ce7,AcceptabilityJudgment,154,0,filler_ungram,NULL,NULL,2,NULL,7189
1550859418,e1ef608fbcf3d85bb2e66386e3197ce7,AcceptabilityJudgment,103,0,filler_gram,NULL,¿A cuál de los camareros que trabajan en la cervecería han visto borracho por la calle Dato?
1550859418,e1ef608fbcf3d85bb2e66386e3197ce7,AcceptabilityJudgment,103,0,filler_gram,NULL,NULL,6,NULL,9004
1550859418,e1ef608fbcf3d85bb2e66386e3197ce7,AcceptabilityJudgment,143,0,filler_ungram,NULL,¿Hay algo que deban saber los miembros del comité de selección antes de coger una decisión definitiva?
1550859418,e1ef608fbcf3d85bb2e66386e3197ce7,AcceptabilityJudgment,143,0,filler_ungram,NULL,NULL,1,NULL,5512
1550859418,e1ef608fbcf3d85bb2e66386e3197ce7,AcceptabilityJudgment,132,0,filler_ungram,NULL,¿A qué edad empieza a consumir bebidas alcohólicas los jóvenes en ciudades grandes como Madrid o Barcelona?
1550859418,e1ef608fbcf3d85bb2e66386e3197ce7,AcceptabilityJudgment,132,0,filler_ungram,NULL,NULL,2,NULL,8337
1550859418,e1ef608fbcf3d85bb2e66386e3197ce7,AcceptabilityJudgment,73,0,local_short,19,A la candidata le han criticado el proyecto que proponen los principales sindicatos antes de poder presentarlo.
1550859418,e1ef608fbcf3d85bb2e66386e3197ce7,AcceptabilityJudgment,73,0,local_short,19,NULL,1,NULL,7087
1550859418,e1ef608fbcf3d85bb2e66386e3197ce7,AcceptabilityJudgment,161,0,filler_ungram,NULL,La alcaldesa ha decretado que todos los bares que no tenga licencia tienen que cerrar de noche.
1550859418,e1ef608fbcf3d85bb2e66386e3197ce7,AcceptabilityJudgment,161,0,filler_ungram,NULL,NULL,1,NULL,5595
1550859418,e1ef608fbcf3d85bb2e66386e3197ce7,AcceptabilityJudgment,147,0,filler_ungram,NULL,¿Adónde Josu suele ir cuando se va en coche los fines de semana sin avisar a nadie?
1550859418,e1ef608fbcf3d85bb2e66386e3197ce7,AcceptabilityJudgment,147,0,filler_ungram,NULL,NULL,2,NULL,4302
1550859418,e1ef608fbcf3d85bb2e66386e3197ce7,AcceptabilityJudgment,140,0,filler_ungram,NULL,¿Es verdad que Yolanda le ha pedido al técnico una cita y ella le ha dado largas?
1550859418,e1ef608fbcf3d85bb2e66386e3197ce7,AcceptabilityJudgment,140,0,filler_ungram,NULL,NULL,1,NULL,5719
1550859418,e1ef608fbcf3d85bb2e66386e3197ce7,AcceptabilityJudgment,27,0,local_long,21,A la empresaria que boicotearon las grandes empresas le han enseñado el plan para que lo evalúe.
1550859418,e1ef608fbcf3d85bb2e66386e3197ce7,AcceptabilityJudgment,27,0,local_long,21,NULL,4,NULL,12492
1550859418,e1ef608fbcf3d85bb2e66386e3197ce7,AcceptabilityJudgment,111,0,filler_gram,NULL,¿Quién crees que ha podido llevarse las llaves de la puerta principal del almacén sin darse cuenta?
1550859418,e1ef608fbcf3d85bb2e66386e3197ce7,AcceptabilityJudgment,111,0,filler_gram,NULL,NULL,7,NULL,6806
1550859418,e1ef608fbcf3d85bb2e66386e3197ce7,AcceptabilityJudgment,122,0,filler_gram,NULL,No era la primera vez que estallaba una discusión durante el desayuno por culpa de la guerra.
1550859418,e1ef608fbcf3d85bb2e66386e3197ce7,AcceptabilityJudgment,122,0,filler_gram,NULL,NULL,7,NULL,5263
1550859418,e1ef608fbcf3d85bb2e66386e3197ce7,AcceptabilityJudgment,107,0,filler_gram,NULL,¿Para quién has comprado las galletas que están encima de la mesa del comedor en una caja?
1550859418,e1ef608fbcf3d85bb2e66386e3197ce7,AcceptabilityJudgment,107,0,filler_gram,NULL,NULL,1,NULL,8586
1550859418,e1ef608fbcf3d85bb2e66386e3197ce7,AcceptabilityJudgment,94,0,wh_short,16,¿A qué modelo le han pospuesto el evento que querían muchas agencias internacionales por el mal tiempo?
1550859418,e1ef608fbcf3d85bb2e66386e3197ce7,AcceptabilityJudgment,94,0,wh_short,16,NULL,5,NULL,6366
1550859418,e1ef608fbcf3d85bb2e66386e3197ce7,AcceptabilityJudgment,130,0,filler_ungram,NULL,¿A los pueblos del sur de España hace falta agua procedente de los embalses del norte?
1550859418,e1ef608fbcf3d85bb2e66386e3197ce7,AcceptabilityJudgment,130,0,filler_ungram,NULL,NULL,1,NULL,5434
1550859418,e1ef608fbcf3d85bb2e66386e3197ce7,AcceptabilityJudgment,129,0,filler_ungram,NULL,¿A Juan le han dicho que tiene que trabajar el lunes por recuperar horas o puede descansar?
1550859418,e1ef608fbcf3d85bb2e66386e3197ce7,AcceptabilityJudgment,129,0,filler_ungram,NULL,NULL,6,NULL,6809
1550859418,e1ef608fbcf3d85bb2e66386e3197ce7,AcceptabilityJudgment,162,0,filler_ungram,NULL,Parece que la presidenta quieren que los trabajadores que han hecho huelga sea penalizados de alguna manera.
1550859418,e1ef608fbcf3d85bb2e66386e3197ce7,AcceptabilityJudgment,162,0,filler_ungram,NULL,NULL,1,NULL,8409
1550859418,e1ef608fbcf3d85bb2e66386e3197ce7,AcceptabilityJudgment,86,0,wh_short,8,¿A qué concursante le han hecho la pregunta que eligieron todos los espectadores para llevarse el bote?
1550859418,e1ef608fbcf3d85bb2e66386e3197ce7,AcceptabilityJudgment,86,0,wh_short,8,NULL,6,NULL,10252
1550859418,e1ef608fbcf3d85bb2e66386e3197ce7,AcceptabilityJudgment,118,0,filler_gram,NULL,A la policía le parece raro que el ministro no quiera presentar su declaración de la renta.
1550859418,e1ef608fbcf3d85bb2e66386e3197ce7,AcceptabilityJudgment,118,0,filler_gram,NULL,NULL,7,NULL,5894
1550859418,e1ef608fbcf3d85bb2e66386e3197ce7,AcceptabilityJudgment,105,0,filler_gram,NULL,¿A quién crees que han pillado robando latas de cerveza en el centro comercial de la esquina?
1550859418,e1ef608fbcf3d85bb2e66386e3197ce7,AcceptabilityJudgment,105,0,filler_gram,NULL,NULL,7,NULL,4395
1550859418,e1ef608fbcf3d85bb2e66386e3197ce7,AcceptabilityJudgment,166,0,filler_ungram,NULL,La gata de la vecina de debajo tiene la costumbre de esconderse detrás del sofá del portal.
1550859418,e1ef608fbcf3d85bb2e66386e3197ce7,AcceptabilityJudgment,166,0,filler_ungram,NULL,NULL,7,NULL,3926
1550859418,e1ef608fbcf3d85bb2e66386e3197ce7,AcceptabilityJudgment,48,0,wh_long,18,¿A qué administrativa que investga la policía anticorrupción le han dado el contrato para que lo oculte?
1550859418,e1ef608fbcf3d85bb2e66386e3197ce7,AcceptabilityJudgment,48,0,wh_long,18,NULL,6,NULL,8125
1550859418,e1ef608fbcf3d85bb2e66386e3197ce7,AcceptabilityJudgment,144,0,filler_ungram,NULL,¿El jefe sería capaz con dejar a su familia y fugarse con el dinero de la empresa?
1550859418,e1ef608fbcf3d85bb2e66386e3197ce7,AcceptabilityJudgment,144,0,filler_ungram,NULL,NULL,1,NULL,5876
1550859418,e1ef608fbcf3d85bb2e66386e3197ce7,AcceptabilityJudgment,141,0,filler_ungram,NULL,¿Cómo sabe Edurne que todos los pedidos que se ha hecho hoy se tienen que entregar mañana?
1550859418,e1ef608fbcf3d85bb2e66386e3197ce7,AcceptabilityJudgment,141,0,filler_ungram,NULL,NULL,7,NULL,3833
1550859418,e1ef608fbcf3d85bb2e66386e3197ce7,AcceptabilityJudgment,98,0,wh_short,20,¿A qué dependienta le han ofrecido el puesto que quieren todos los trabajdores después de tres años?
1550859418,e1ef608fbcf3d85bb2e66386e3197ce7,AcceptabilityJudgment,98,0,wh_short,20,NULL,3,NULL,9471
1550859418,e1ef608fbcf3d85bb2e66386e3197ce7,AcceptabilityJudgment,167,0,filler_ungram,NULL,Luis no sabe si prefierese los yogures de limón o las natillas de vainilla con galleta María.
1550859418,e1ef608fbcf3d85bb2e66386e3197ce7,AcceptabilityJudgment,167,0,filler_ungram,NULL,NULL,1,NULL,4512
1550859418,e1ef608fbcf3d85bb2e66386e3197ce7,AcceptabilityJudgment,137,0,filler_ungram,NULL,¿Quién le ha dado permiso al portero que debería estar en la puerta por tomarse un descanso?
1550859418,e1ef608fbcf3d85bb2e66386e3197ce7,AcceptabilityJudgment,137,0,filler_ungram,NULL,NULL,1,NULL,7722
1550859418,e1ef608fbcf3d85bb2e66386e3197ce7,AcceptabilityJudgment,173,0,filler_ungram,NULL,Mucha gente opta por regalar ramos de flores como detalle cuando él mismo se va de una empresa.
1550859418,e1ef608fbcf3d85bb2e66386e3197ce7,AcceptabilityJudgment,173,0,filler_ungram,NULL,NULL,1,NULL,5062
1550859418,e1ef608fbcf3d85bb2e66386e3197ce7,AcceptabilityJudgment,36,0,wh_long,6,¿A qué ejecutiva que apoya la junta directiva le han rechazado la propuesta en la última votación?
1550859418,e1ef608fbcf3d85bb2e66386e3197ce7,AcceptabilityJudgment,36,0,wh_long,6,NULL,6,NULL,14842
1550859418,e1ef608fbcf3d85bb2e66386e3197ce7,AcceptabilityJudgment,156,0,filler_ungram,NULL,Al conserje lo han pillado robando en la oficina del director general cuando no habían nadie alrededor.
1550859418,e1ef608fbcf3d85bb2e66386e3197ce7,AcceptabilityJudgment,156,0,filler_ungram,NULL,NULL,7,NULL,4436
1550859418,e1ef608fbcf3d85bb2e66386e3197ce7,AcceptabilityJudgment,121,0,filler_gram,NULL,Harry le ha dicho a Ron que después de la comida quiere ir a tomar un helado.
1550859418,e1ef608fbcf3d85bb2e66386e3197ce7,AcceptabilityJudgment,121,0,filler_gram,NULL,NULL,7,NULL,6576
1550859418,e1ef608fbcf3d85bb2e66386e3197ce7,AcceptabilityJudgment,104,0,filler_gram,NULL,¿A qué ha venido el cliente que se ha ido montando un espectáculo e insultando al encargado?
1550859418,e1ef608fbcf3d85bb2e66386e3197ce7,AcceptabilityJudgment,104,0,filler_gram,NULL,NULL,7,NULL,6854
1550859418,e1ef608fbcf3d85bb2e66386e3197ce7,AcceptabilityJudgment,65,0,local_short,11,A la pasajera le han perdido la maleta que retuvo el guarda jurado al llegar al aeropuerto.
1550859418,e1ef608fbcf3d85bb2e66386e3197ce7,AcceptabilityJudgment,65,0,local_short,11,NULL,5,NULL,8599
1550859418,e1ef608fbcf3d85bb2e66386e3197ce7,AcceptabilityJudgment,115,0,filler_gram,NULL,Al coche de mi hermano le toca pasar la revisión en el taller que recomienda el fabricante.
1550859418,e1ef608fbcf3d85bb2e66386e3197ce7,AcceptabilityJudgment,115,0,filler_gram,NULL,NULL,7,NULL,7732
1550859418,e1ef608fbcf3d85bb2e66386e3197ce7,AcceptabilityJudgment,160,0,filler_ungram,NULL,Jon sabe que las galletas que compra en el supermercado no son las más apropiados para él.
1550859418,e1ef608fbcf3d85bb2e66386e3197ce7,AcceptabilityJudgment,160,0,filler_ungram,NULL,NULL,1,NULL,6121
1550859418,e1ef608fbcf3d85bb2e66386e3197ce7,AcceptabilityJudgment,139,0,filler_ungram,NULL,¿Por qué a los italianos da tanto asco que se le ponga piña a la pizza?
1550859418,e1ef608fbcf3d85bb2e66386e3197ce7,AcceptabilityJudgment,139,0,filler_ungram,NULL,NULL,1,NULL,3619
1550859418,e1ef608fbcf3d85bb2e66386e3197ce7,AcceptabilityJudgment,90,0,wh_short,12,¿A qué fugitiva le han quitado el botín que buscaba la Guardia Civil cuando cruzaba la frontera?
1550859418,e1ef608fbcf3d85bb2e66386e3197ce7,AcceptabilityJudgment,90,0,wh_short,12,NULL,1,NULL,8521
1550859418,e1ef608fbcf3d85bb2e66386e3197ce7,AcceptabilityJudgment,155,0,filler_ungram,NULL,Al apagar la luz viera una sombra y me levanté de la cama para ver qué era.
1550859418,e1ef608fbcf3d85bb2e66386e3197ce7,AcceptabilityJudgment,155,0,filler_ungram,NULL,NULL,1,NULL,3552
1550859418,e1ef608fbcf3d85bb2e66386e3197ce7,AcceptabilityJudgment,119,0,filler_gram,NULL,Miren quiere que los candidatos que estén interesados en el puesto manden su currículum por correo electrónico.
1550859418,e1ef608fbcf3d85bb2e66386e3197ce7,AcceptabilityJudgment,119,0,filler_gram,NULL,NULL,7,NULL,8034
1550859418,e1ef608fbcf3d85bb2e66386e3197ce7,AcceptabilityJudgment,165,0,filler_ungram,NULL,El hermano de Diego sospecha que el regalo no es para ella misma porque no es su cumpleaños.
1550859418,e1ef608fbcf3d85bb2e66386e3197ce7,AcceptabilityJudgment,165,0,filler_ungram,NULL,NULL,1,NULL,7303
1550859418,e1ef608fbcf3d85bb2e66386e3197ce7,AcceptabilityJudgment,23,0,local_long,17,A la cocinera que elogian los críticos culinarios le han copiado el postre sin que diera permiso.
1550859418,e1ef608fbcf3d85bb2e66386e3197ce7,AcceptabilityJudgment,23,0,local_long,17,NULL,7,NULL,4837
1550859418,e1ef608fbcf3d85bb2e66386e3197ce7,AcceptabilityJudgment,163,0,filler_ungram,NULL,Para las deshauciados el tener que volver a casa de sus padres es un proceso muy traumático.
1550859418,e1ef608fbcf3d85bb2e66386e3197ce7,AcceptabilityJudgment,163,0,filler_ungram,NULL,NULL,1,NULL,8592
1550859418,e1ef608fbcf3d85bb2e66386e3197ce7,AcceptabilityJudgment,169,0,filler_ungram,NULL,Mikel opina que a Laura debe de faltar todavía un poco para defender su tesis doctoral.
1550859418,e1ef608fbcf3d85bb2e66386e3197ce7,AcceptabilityJudgment,169,0,filler_ungram,NULL,NULL,1,NULL,6107
1550859418,e1ef608fbcf3d85bb2e66386e3197ce7,AcceptabilityJudgment,125,0,filler_gram,NULL,Itziar se ha hecho daño en la mano al intentar matar una mosca e irá al médico.
1550859418,e1ef608fbcf3d85bb2e66386e3197ce7,AcceptabilityJudgment,125,0,filler_gram,NULL,NULL,7,NULL,5826
1550859418,e1ef608fbcf3d85bb2e66386e3197ce7,AcceptabilityJudgment,77,0,local_short,23,A la profesora le han lavado la chaqueta que ensuciaron bastante los niños en la tintorería nueva.
1550859418,e1ef608fbcf3d85bb2e66386e3197ce7,AcceptabilityJudgment,77,0,local_short,23,NULL,1,NULL,6068
1550859418,e1ef608fbcf3d85bb2e66386e3197ce7,AcceptabilityJudgment,149,0,filler_ungram,NULL,¿Por dónde tienen que ir Andrea si quiere llegar a la plaza de la catedral cuanto antes?
1550859418,e1ef608fbcf3d85bb2e66386e3197ce7,AcceptabilityJudgment,149,0,filler_ungram,NULL,NULL,7,NULL,3773
1550859418,e1ef608fbcf3d85bb2e66386e3197ce7,AcceptabilityJudgment,158,0,filler_ungram,NULL,A menudo perdemos la noción del tiempo cuando estáis haciendo algo divertido con nuestra pareja o amigos.
1550859418,e1ef608fbcf3d85bb2e66386e3197ce7,AcceptabilityJudgment,158,0,filler_ungram,NULL,NULL,1,NULL,5723
1550859418,e1ef608fbcf3d85bb2e66386e3197ce7,AcceptabilityJudgment,171,0,filler_ungram,NULL,Los expertos dicen que los productos de Mercadona fuesen de una calidad similar a los de marca.
1550859418,e1ef608fbcf3d85bb2e66386e3197ce7,AcceptabilityJudgment,171,0,filler_ungram,NULL,NULL,1,NULL,4712
1550859418,e1ef608fbcf3d85bb2e66386e3197ce7,AcceptabilityJudgment,102,0,wh_short,24,¿A qué arquitecta le han parado la obra que contrató la promotora inmobiliaria por no tener permiso?
1550859418,e1ef608fbcf3d85bb2e66386e3197ce7,AcceptabilityJudgment,102,0,wh_short,24,NULL,1,NULL,5483
1550859418,e1ef608fbcf3d85bb2e66386e3197ce7,AcceptabilityJudgment,131,0,filler_ungram,NULL,¿A cuánto está las patatas de guisar y los pimientos de Guernica en el mercado de Bilbao?
1550859418,e1ef608fbcf3d85bb2e66386e3197ce7,AcceptabilityJudgment,131,0,filler_ungram,NULL,NULL,7,NULL,5250
1550859418,e1ef608fbcf3d85bb2e66386e3197ce7,AcceptabilityJudgment,151,0,filler_ungram,NULL,A veces los estudiantes que menos estudian son lo que dan más trabajo en la evaluación final.
1550859418,e1ef608fbcf3d85bb2e66386e3197ce7,AcceptabilityJudgment,151,0,filler_ungram,NULL,NULL,1,NULL,5232
1550859418,e1ef608fbcf3d85bb2e66386e3197ce7,AcceptabilityJudgment,128,0,filler_ungram,NULL,¿A veces piensas que las estrellas que brilla mucho en el cielo por la noche son ovnis?
1550859418,e1ef608fbcf3d85bb2e66386e3197ce7,AcceptabilityJudgment,128,0,filler_ungram,NULL,NULL,1,NULL,5677
1550859418,e1ef608fbcf3d85bb2e66386e3197ce7,AcceptabilityJudgment,7,0,local_long,1,A la abogada que buscaba el secretario judicial le han entregado la documentación para que la archive.
1550859418,e1ef608fbcf3d85bb2e66386e3197ce7,AcceptabilityJudgment,7,0,local_long,1,NULL,7,NULL,5101
1550859418,e1ef608fbcf3d85bb2e66386e3197ce7,AcceptabilityJudgment,148,0,filler_ungram,NULL,¿Por qué Alain insiste en seguir querido ser DJ cuando todos opinan que se le da fatal?
1550859418,e1ef608fbcf3d85bb2e66386e3197ce7,AcceptabilityJudgment,148,0,filler_ungram,NULL,NULL,1,NULL,4853
1550859418,e1ef608fbcf3d85bb2e66386e3197ce7,AcceptabilityJudgment,136,0,filler_ungram,NULL,¿María ha descubierto que los contratos que firmaron la constructora no cumplen con la nueva normativa europea?
1550859418,e1ef608fbcf3d85bb2e66386e3197ce7,AcceptabilityJudgment,136,0,filler_ungram,NULL,NULL,7,NULL,6404
1550859418,e1ef608fbcf3d85bb2e66386e3197ce7,AcceptabilityJudgment,157,0,filler_ungram,NULL,A Pablo no parece normal que haya que pedir el voto por correo dos meses antes.
1550859418,e1ef608fbcf3d85bb2e66386e3197ce7,AcceptabilityJudgment,157,0,filler_ungram,NULL,NULL,1,NULL,5091
1550859418,e1ef608fbcf3d85bb2e66386e3197ce7,AcceptabilityJudgment,15,0,local_long,9,A la ministra que criticó duramente la oposición le han publicado el libro después de mucha polémica.
1550859418,e1ef608fbcf3d85bb2e66386e3197ce7,AcceptabilityJudgment,15,0,local_long,9,NULL,6,NULL,14520
1550859418,e1ef608fbcf3d85bb2e66386e3197ce7,AcceptabilityJudgment,150,0,filler_ungram,NULL,¿Es cierto que los manifestantes ha cortado el acceso al palacio de la Moncloa con neumáticos ardiendo?
1550859418,e1ef608fbcf3d85bb2e66386e3197ce7,AcceptabilityJudgment,150,0,filler_ungram,NULL,NULL,1,NULL,3657
1550859418,e1ef608fbcf3d85bb2e66386e3197ce7,AcceptabilityJudgment,153,0,filler_ungram,NULL,Al hospital faltan recursos y por eso los pacientes que llegan a urgenicas tienen que esperar.
1550859418,e1ef608fbcf3d85bb2e66386e3197ce7,AcceptabilityJudgment,153,0,filler_ungram,NULL,NULL,1,NULL,4790
1550859418,e1ef608fbcf3d85bb2e66386e3197ce7,AcceptabilityJudgment,114,0,filler_gram,NULL,¿Es posible que los cientifícos se hayan equivocado y que la tierra no gire alrededor del Sol?
1550859418,e1ef608fbcf3d85bb2e66386e3197ce7,AcceptabilityJudgment,114,0,filler_gram,NULL,NULL,7,NULL,5332
1550859418,e1ef608fbcf3d85bb2e66386e3197ce7,AcceptabilityJudgment,44,0,wh_long,14,¿A qué periodista que temen todos los políticos le han dado el programa por su gran profesionalidad?
1550859418,e1ef608fbcf3d85bb2e66386e3197ce7,AcceptabilityJudgment,44,0,wh_long,14,NULL,7,NULL,8336
1550859418,e1ef608fbcf3d85bb2e66386e3197ce7,AcceptabilityJudgment,133,0,filler_ungram,NULL,¿A cuántos de los asistentes ha parecido interesante incluir una mesa redonda sobre el maltrato infantil?
1550859418,e1ef608fbcf3d85bb2e66386e3197ce7,AcceptabilityJudgment,133,0,filler_ungram,NULL,NULL,1,NULL,7461
1550859418,e1ef608fbcf3d85bb2e66386e3197ce7,AcceptabilityJudgment,142,0,filler_ungram,NULL,¿María le ha preguntado a su madre dónde había ido a recoger la blusa a la lavandería?
1550859418,e1ef608fbcf3d85bb2e66386e3197ce7,AcceptabilityJudgment,142,0,filler_ungram,NULL,NULL,6,NULL,5944
1550859418,e1ef608fbcf3d85bb2e66386e3197ce7,AcceptabilityJudgment,164,0,filler_ungram,NULL,Varios de los vecinos estaban viendo por la ventana y cuchicheaban mientras veían cómo ardía el contenedor.
1550859418,e1ef608fbcf3d85bb2e66386e3197ce7,AcceptabilityJudgment,164,0,filler_ungram,NULL,NULL,4,NULL,10528
1550859418,e1ef608fbcf3d85bb2e66386e3197ce7,AcceptabilityJudgment,116,0,filler_gram,NULL,Al pasar por la casa que queríamos comprar vimos en un cartel que ya se había vendido.
1550859418,e1ef608fbcf3d85bb2e66386e3197ce7,AcceptabilityJudgment,116,0,filler_gram,NULL,NULL,7,NULL,7481
1550859418,e1ef608fbcf3d85bb2e66386e3197ce7,AcceptabilityJudgment,69,0,local_short,15,A la señora le han embargado el piso que visitaron los trabajadores sociales porque no tiene recursos.
1550859418,e1ef608fbcf3d85bb2e66386e3197ce7,AcceptabilityJudgment,69,0,local_short,15,NULL,1,NULL,6188
1550859418,e1ef608fbcf3d85bb2e66386e3197ce7,AcceptabilityJudgment,110,0,filler_gram,NULL,¿Los bebés tienen que dormir más de catorce horas al día o es solo una leyenda urbana?
1550859418,e1ef608fbcf3d85bb2e66386e3197ce7,AcceptabilityJudgment,110,0,filler_gram,NULL,NULL,7,NULL,8785
1550859418,e1ef608fbcf3d85bb2e66386e3197ce7,AcceptabilityJudgment,123,0,filler_gram,NULL,Lorena y Jone se hicieron muy amigas durante el Erasmus y ahora se ven todos los años.
1550859418,e1ef608fbcf3d85bb2e66386e3197ce7,AcceptabilityJudgment,123,0,filler_gram,NULL,NULL,7,NULL,4175
1550859418,e1ef608fbcf3d85bb2e66386e3197ce7,AcceptabilityJudgment,134,0,filler_ungram,NULL,¿A Kepa le parece bien que vayamos a cenar con él mismo o prefiere quedarse solo en casa?
1550859418,e1ef608fbcf3d85bb2e66386e3197ce7,AcceptabilityJudgment,134,0,filler_ungram,NULL,NULL,7,NULL,4915
1550859418,e1ef608fbcf3d85bb2e66386e3197ce7,AcceptabilityJudgment,11,0,local_long,5,A la investigadora que premió la Universidad Complutense le han publicado el estudio en una revista importante.
1550859418,e1ef608fbcf3d85bb2e66386e3197ce7,AcceptabilityJudgment,11,0,local_long,5,NULL,7,NULL,6257
1550859418,e1ef608fbcf3d85bb2e66386e3197ce7,AcceptabilityJudgment,109,0,filler_gram,NULL,¿Juan piensa que estamos enfadados porque no ha venido a cenar o porque ya no le llamamos?
1550859418,e1ef608fbcf3d85bb2e66386e3197ce7,AcceptabilityJudgment,109,0,filler_gram,NULL,NULL,7,NULL,5867
1550859418,e1ef608fbcf3d85bb2e66386e3197ce7,AcceptabilityJudgment,124,0,filler_gram,NULL,Los cuadros estaban iluminados por dos lámparas enormes pero aún así no se podían apreciar los detalles.
1550859418,e1ef608fbcf3d85bb2e66386e3197ce7,AcceptabilityJudgment,124,0,filler_gram,NULL,NULL,7,NULL,6905
1550859418,e1ef608fbcf3d85bb2e66386e3197ce7,AcceptabilityJudgment,146,0,filler_ungram,NULL,¿Cuál de los socios del gimnasio ha oído cómo el monitor insultaba los alumnos en clase?
1550859418,e1ef608fbcf3d85bb2e66386e3197ce7,AcceptabilityJudgment,146,0,filler_ungram,NULL,NULL,7,NULL,5174
1550859418,e1ef608fbcf3d85bb2e66386e3197ce7,AcceptabilityJudgment,32,0,wh_long,2,¿A qué chica que registró la policía secreta le han confiscado la mochila porque puede ser peligrosa?
1550859418,e1ef608fbcf3d85bb2e66386e3197ce7,AcceptabilityJudgment,32,0,wh_long,2,NULL,6,NULL,8700
1550859418,e1ef608fbcf3d85bb2e66386e3197ce7,AcceptabilityJudgment,172,0,filler_ungram,NULL,Ibon ha comprado velas aromáticos para ponerlas alrededor de la bañera y darle una sorpresa a Leire.
1550859418,e1ef608fbcf3d85bb2e66386e3197ce7,AcceptabilityJudgment,172,0,filler_ungram,NULL,NULL,7,NULL,5576
1550859418,e1ef608fbcf3d85bb2e66386e3197ce7,AcceptabilityJudgment,117,0,filler_gram,NULL,A muchos de los nadadores no les hizo gracia que el ayuntamiento decidiera cerrar la piscina municipal.
1550859418,e1ef608fbcf3d85bb2e66386e3197ce7,AcceptabilityJudgment,117,0,filler_gram,NULL,NULL,7,NULL,4820
1550859418,e1ef608fbcf3d85bb2e66386e3197ce7,AcceptabilityJudgment,159,0,filler_ungram,NULL,Todos los bailarines que fueron seleccionadas para el programa tienen muchos años de experiencia a sus espaldas.
1550859418,e1ef608fbcf3d85bb2e66386e3197ce7,AcceptabilityJudgment,159,0,filler_ungram,NULL,NULL,1,NULL,8463
1550859418,e1ef608fbcf3d85bb2e66386e3197ce7,AcceptabilityJudgment,82,0,wh_short,4,¿A qué actriz le han dedicado la canción que aparece en la película como muestra de admiración?
1550859418,e1ef608fbcf3d85bb2e66386e3197ce7,AcceptabilityJudgment,82,0,wh_short,4,NULL,2,NULL,8028
1550859418,e1ef608fbcf3d85bb2e66386e3197ce7,AcceptabilityJudgment,113,0,filler_gram,NULL,¿Le puede decir al Consejero de Educación que le volveré a llamar posiblemente la semana que viene?
1550859418,e1ef608fbcf3d85bb2e66386e3197ce7,AcceptabilityJudgment,113,0,filler_gram,NULL,NULL,1,NULL,7188
1550859418,e1ef608fbcf3d85bb2e66386e3197ce7,AcceptabilityJudgment,120,0,filler_gram,NULL,El frutero que vende papayas en la plaza de abastos nació en Cuba pero lleva aquí años.
1550859418,e1ef608fbcf3d85bb2e66386e3197ce7,AcceptabilityJudgment,120,0,filler_gram,NULL,NULL,7,NULL,6001
1550859418,e1ef608fbcf3d85bb2e66386e3197ce7,AcceptabilityJudgment,19,0,local_long,13,A la famosa que admiran todos los adolescentes le han cancelado la serie por no tener audiencia.
1550859418,e1ef608fbcf3d85bb2e66386e3197ce7,AcceptabilityJudgment,19,0,local_long,13,NULL,7,NULL,4256
#
# Results on Friday February 22 2019 18:20:33 UTC.
# USER AGENT: Mozilla/5.0 (Linux; Android 8.1.0; SM-J610G) AppleWebKit/537.36 (KHTML, like Gecko) Chrome/72.0.3626.105 Mobile Safari/537.36
# Design number was non-random = 0
#
# Columns below this comment are as follows:
# 1. Time results were received.
# 2. MD5 hash of participant's IP address.
# 3. Controller name.
# 4. Item number.
# 5. Element number.
# 6. Type.
# 7. Group.
# 8. Field name.
# 9. Field value.
1550859633,477d7e65a0f41a7954da6a3902bec57a,Form,0,0,intro,NULL,age,40
1550859633,477d7e65a0f41a7954da6a3902bec57a,Form,0,0,intro,NULL,consent,yes
1550859633,477d7e65a0f41a7954da6a3902bec57a,Form,0,0,intro,NULL,Spain,Si
1550859633,477d7e65a0f41a7954da6a3902bec57a,Form,0,0,intro,NULL,Spanish,Si
1550859633,477d7e65a0f41a7954da6a3902bec57a,Form,0,0,intro,NULL,sex,male
# The lines below this comment are in groups of 2.
# The formats of the lines in each of these groups are as follows:
#
# Line 1:
#     Col. 1: Time results were received.
#     Col. 2: MD5 hash of participant's IP address.
#     Col. 3: Controller name.
#     Col. 4: Item number.
#     Col. 5: Element number.
#     Col. 6: Type.
#     Col. 7: Group.
#     Col. 8: Sentence (or sentence MD5).
# Line 2:
#     Col. 1: Time results were received.
#     Col. 2: MD5 hash of participant's IP address.
#     Col. 3: Controller name.
#     Col. 4: Item number.
#     Col. 5: Element number.
#     Col. 6: Type.
#     Col. 7: Group.
#     Col. 8: Question (NULL if none).
#     Col. 9: Answer.
#     Col. 10: Whether or not answer was correct (NULL if N/A).
#     Col. 11: Time taken to answer.
1550859633,477d7e65a0f41a7954da6a3902bec57a,AcceptabilityJudgment,4,0,practice,NULL,¿Qué coche que te has comprado?
1550859633,477d7e65a0f41a7954da6a3902bec57a,AcceptabilityJudgment,4,0,practice,NULL,NULL,1,NULL,13086
1550859633,477d7e65a0f41a7954da6a3902bec57a,AcceptabilityJudgment,6,0,practice,NULL,María no sabe qué libro leyó Juan.
1550859633,477d7e65a0f41a7954da6a3902bec57a,AcceptabilityJudgment,6,0,practice,NULL,NULL,7,NULL,5507
1550859633,477d7e65a0f41a7954da6a3902bec57a,AcceptabilityJudgment,3,0,practice,NULL,¿A quién le mandó qué libro?
1550859633,477d7e65a0f41a7954da6a3902bec57a,AcceptabilityJudgment,3,0,practice,NULL,NULL,1,NULL,3736
1550859633,477d7e65a0f41a7954da6a3902bec57a,AcceptabilityJudgment,1,0,practice,NULL,Pintó el artista retratos terribles.
1550859633,477d7e65a0f41a7954da6a3902bec57a,AcceptabilityJudgment,1,0,practice,NULL,NULL,2,NULL,6190
1550859633,477d7e65a0f41a7954da6a3902bec57a,AcceptabilityJudgment,2,0,practice,NULL,¿Qué poema conoces a la mujer que escribía?
1550859633,477d7e65a0f41a7954da6a3902bec57a,AcceptabilityJudgment,2,0,practice,NULL,NULL,1,NULL,6782
1550859633,477d7e65a0f41a7954da6a3902bec57a,AcceptabilityJudgment,5,0,practice,NULL,Susurró por qué lo había hecho.
1550859633,477d7e65a0f41a7954da6a3902bec57a,AcceptabilityJudgment,5,0,practice,NULL,NULL,6,NULL,7836
1550859633,477d7e65a0f41a7954da6a3902bec57a,AcceptabilityJudgment,146,0,filler_ungram,NULL,¿Cuál de los socios del gimnasio ha oído cómo el monitor insultaba los alumnos en clase?
1550859633,477d7e65a0f41a7954da6a3902bec57a,AcceptabilityJudgment,146,0,filler_ungram,NULL,NULL,3,NULL,11436
1550859633,477d7e65a0f41a7954da6a3902bec57a,AcceptabilityJudgment,174,0,filler_ungram,NULL,Tanto los ancianos como los niños pequeños estoy dentro de la población de riesgo cuando hace calor.
1550859633,477d7e65a0f41a7954da6a3902bec57a,AcceptabilityJudgment,174,0,filler_ungram,NULL,NULL,1,NULL,4818
1550859633,477d7e65a0f41a7954da6a3902bec57a,AcceptabilityJudgment,173,0,filler_ungram,NULL,Mucha gente opta por regalar ramos de flores como detalle cuando él mismo se va de una empresa.
1550859633,477d7e65a0f41a7954da6a3902bec57a,AcceptabilityJudgment,173,0,filler_ungram,NULL,NULL,2,NULL,10847
1550859633,477d7e65a0f41a7954da6a3902bec57a,AcceptabilityJudgment,27,0,local_long,21,A la empresaria que boicotearon las grandes empresas le han enseñado el plan para que lo evalúe.
1550859633,477d7e65a0f41a7954da6a3902bec57a,AcceptabilityJudgment,27,0,local_long,21,NULL,5,NULL,10074
1550859633,477d7e65a0f41a7954da6a3902bec57a,AcceptabilityJudgment,125,0,filler_gram,NULL,Itziar se ha hecho daño en la mano al intentar matar una mosca e irá al médico.
1550859633,477d7e65a0f41a7954da6a3902bec57a,AcceptabilityJudgment,125,0,filler_gram,NULL,NULL,7,NULL,10906
1550859633,477d7e65a0f41a7954da6a3902bec57a,AcceptabilityJudgment,137,0,filler_ungram,NULL,¿Quién le ha dado permiso al portero que debería estar en la puerta por tomarse un descanso?
1550859633,477d7e65a0f41a7954da6a3902bec57a,AcceptabilityJudgment,137,0,filler_ungram,NULL,NULL,2,NULL,9121
1550859633,477d7e65a0f41a7954da6a3902bec57a,AcceptabilityJudgment,112,0,filler_gram,NULL,¿Qué tipo de ropa le gusta ponerse a Julen para pasarse el domingo tirado en el sofá?
1550859633,477d7e65a0f41a7954da6a3902bec57a,AcceptabilityJudgment,112,0,filler_gram,NULL,NULL,6,NULL,11986
1550859633,477d7e65a0f41a7954da6a3902bec57a,AcceptabilityJudgment,136,0,filler_ungram,NULL,¿María ha descubierto que los contratos que firmaron la constructora no cumplen con la nueva normativa europea?
1550859633,477d7e65a0f41a7954da6a3902bec57a,AcceptabilityJudgment,136,0,filler_ungram,NULL,NULL,1,NULL,11483
1550859633,477d7e65a0f41a7954da6a3902bec57a,AcceptabilityJudgment,19,0,local_long,13,A la famosa que admiran todos los adolescentes le han cancelado la serie por no tener audiencia.
1550859633,477d7e65a0f41a7954da6a3902bec57a,AcceptabilityJudgment,19,0,local_long,13,NULL,6,NULL,7331
1550859633,477d7e65a0f41a7954da6a3902bec57a,AcceptabilityJudgment,153,0,filler_ungram,NULL,Al hospital faltan recursos y por eso los pacientes que llegan a urgenicas tienen que esperar.
1550859633,477d7e65a0f41a7954da6a3902bec57a,AcceptabilityJudgment,153,0,filler_ungram,NULL,NULL,2,NULL,13343
1550859633,477d7e65a0f41a7954da6a3902bec57a,AcceptabilityJudgment,143,0,filler_ungram,NULL,¿Hay algo que deban saber los miembros del comité de selección antes de coger una decisión definitiva?
1550859633,477d7e65a0f41a7954da6a3902bec57a,AcceptabilityJudgment,143,0,filler_ungram,NULL,NULL,6,NULL,14105
1550859633,477d7e65a0f41a7954da6a3902bec57a,AcceptabilityJudgment,86,0,wh_short,8,¿A qué concursante le han hecho la pregunta que eligieron todos los espectadores para llevarse el bote?
1550859633,477d7e65a0f41a7954da6a3902bec57a,AcceptabilityJudgment,86,0,wh_short,8,NULL,5,NULL,13784
1550859633,477d7e65a0f41a7954da6a3902bec57a,AcceptabilityJudgment,140,0,filler_ungram,NULL,¿Es verdad que Yolanda le ha pedido al técnico una cita y ella le ha dado largas?
1550859633,477d7e65a0f41a7954da6a3902bec57a,AcceptabilityJudgment,140,0,filler_ungram,NULL,NULL,6,NULL,14385
1550859633,477d7e65a0f41a7954da6a3902bec57a,AcceptabilityJudgment,110,0,filler_gram,NULL,¿Los bebés tienen que dormir más de catorce horas al día o es solo una leyenda urbana?
1550859633,477d7e65a0f41a7954da6a3902bec57a,AcceptabilityJudgment,110,0,filler_gram,NULL,NULL,4,NULL,10256
1550859633,477d7e65a0f41a7954da6a3902bec57a,AcceptabilityJudgment,156,0,filler_ungram,NULL,Al conserje lo han pillado robando en la oficina del director general cuando no habían nadie alrededor.
1550859633,477d7e65a0f41a7954da6a3902bec57a,AcceptabilityJudgment,156,0,filler_ungram,NULL,NULL,2,NULL,8358
